accel_x,accel_y,accel_z,gyro_x,gyro_y,gyro_z,temp,latitude,longitude,altitude,speed_knots
-3.4375355398064267,0.730146461816996,-10.172336503370968,49.87270375419359,-17.205554608260417,16.284578837753322,24.263782519543792,34.035,-84.125,300.0,0.0
-3.429411333074074,0.7070636183078333,-10.297073012939075,49.09303679640765,-17.32147145164786,18.16326236126981,24.454145979346553,34.03501287940715,-84.12499534100616,300.40090929951725,2.906221909188462
-3.3740410352285637,0.5463314852160697,-10.214031733093751,50.18716299943104,-19.063655293846022,17.595078014574995,24.586957519671497,34.03502356784096,-84.12499175580031,300.96865659706754,2.3978525794953742
-3.3066870153289027,0.7614874779517598,-10.44171144076025,48.85834813626997,-17.052821695043203,16.884256244393637,24.38494010128484,34.03503611714949,-84.12498768048485,300.2506361965653,2.808986176952564
-3.4068553116250446,1.1328506429546148,-10.433777140844311,49.71277648602248,-16.841983905151142,19.586571097064397,24.23367930255715,34.03504704199664,-84.1249837772632,300.461818418748,2.4626856619109643
-3.376459319062929,0.9465344678561225,-10.348662501270034,49.130744901189296,-17.396388222414174,16.454147398889234,24.20546953342065,34.03505801761478,-84.12498070772811,299.8996287480285,2.435213057949323
-3.1959132119383296,0.9588060062003417,-10.31745731775892,47.084155867397826,-17.594843257240754,17.272502053497895,24.31749957245516,34.03506826321974,-84.12497750424518,300.1598949067032,2.287675811381873
-3.2865519650620065,0.7830971408267839,-10.62615579317554,48.40879877893383,-16.247465932853977,16.56451827078307,24.30617320713326,34.035081700906524,-84.124973454398,300.5187072189081,2.9937154277936817
-3.3149389178068116,0.5758128897038601,-10.070205920015272,49.23181906103486,-17.40429816114955,16.58374945310808,24.217593411220246,34.035094415032816,-84.12497015842297,299.71626832401665,2.8108045225144362
-3.5678900450002744,0.4516852959432519,-10.123466469114243,49.44959957546839,-17.674104527338386,16.8906875392138,24.367535457292124,34.03510576436896,-84.12496749175426,299.72872939888,2.499181352980466
-3.13831458058518,0.5070187027079683,-10.410869280560066,47.046538633891565,-18.85158254879742,18.985818197402914,24.3232640141146,34.035119149212015,-84.12496349247017,300.06254057126,2.980445315212405
-3.245732955584564,0.7903830909676911,-9.962456247770255,48.96229056722876,-18.58452109808306,18.132527375215503,24.245097857445963,34.03513125986432,-84.12496023184002,299.530294625928,2.682029816096384
-3.0773358200760237,0.39871528877455126,-10.334033792865947,49.38961824688255,-16.46055357468213,17.49268963603317,24.233922791439504,34.035143599633614,-84.12495586242109,300.26857360408223,2.779646513234498
-3.4024608994990415,0.41189933909484705,-10.373379228614573,48.28918834593446,-17.705758145767774,19.050235157464286,24.282936682850814,34.0351553622241,-84.12495226651653,300.7605035014331,2.622752890355836
-3.2777309189910446,0.7150885719571988,-10.160330816479053,48.36638286781545,-16.830043398331043,16.91176632800357,24.371320025271725,34.035164681462085,-84.12495002839516,299.414998335031,2.0538196685480403
-0.9172628702990469,-1.8417378272526796,-10.155332704821351,20.482614171667468,17.825752464396633,36.00278102111041,24.472199385873154,34.03517623267945,-84.1249466303534,299.57319478747075,2.5698651171414424
-1.0380231739040489,-1.796137202585963,-9.881899746163974,21.959990739710523,18.935325130172647,36.725028572301476,24.51775892507674,34.03518862602856,-84.12494252156378,300.7963243760675,2.7780302249252498
-0.5780012248999522,-1.9431810857864242,-10.083276057138491,20.678905210774268,18.220756862293086,37.29417227240935,24.786169712360326,34.03519892094033,-84.124938301775,299.94557701580663,2.350068989402983
-0.7466655850915399,-1.7818399707586439,-10.19624847263914,20.85363983059157,18.268672877398394,36.14521066756163,24.679056262453564,34.03520995185169,-84.12493407710676,300.19234897257587,2.5014872320040418
-0.9739665297476375,-2.018408498992088,-10.139294258763089,20.31837910203454,18.160932849534333,36.10524258282003,24.54422609175833,34.0352200263607,-84.1249295253554,300.5191297994127,2.325188490710637
-1.0255854900818706,-1.7834302641358908,-10.135634864167557,20.66868957906782,18.283395918338126,36.77734427617879,24.50798053852643,34.03523249184886,-84.12492381250892,300.93343730083785,2.8821329965839446
-0.49147093783934126,-1.9725492972393823,-10.316914744581766,19.44439331746236,17.127732295654916,38.50248933659272,24.718960548835263,34.03524281248972,-84.12491925162587,298.4711985216253,2.375646350764715
-0.41268154625260123,-1.9182684734709887,-10.049623664293659,21.035088109931632,17.819899343770583,37.13550851822031,24.507879959542713,34.0352555839488,-84.12491243121652,298.5626395708778,3.0187425172110722
-0.7297183277905471,-1.9375159086800595,-10.140089840889944,19.13545853385721,16.821943140759224,37.096392171231976,24.679579891120454,34.03526491557475,-84.12490734638445,299.5265942703344,2.2130955333814457
-0.5874224548305362,-1.816342315784894,-10.246677515371656,19.054593333447123,18.271541661062955,36.56919999796377,24.601719761572767,34.0352768733138,-84.12490146785578,300.4106994919979,2.7908688103293082
-0.8418798323636468,-1.5227472560094055,-10.078683089141432,19.73710782109979,17.980433383729203,39.28114132244873,24.616675256850733,34.035287277118485,-84.12489413293001,300.0812969489338,2.6044104543860285
-0.9350233120902453,-1.7452685018855219,-10.226514012186506,20.15989563252008,19.29485506780798,37.02819949144513,24.47666655910239,34.03529680433629,-84.12488727589987,299.7437442150044,2.397730983622872
-0.9070425585488224,-1.834267497000859,-10.165691630502181,19.44699116761156,19.127893920656255,39.26669287352547,24.527188403861064,34.03530646040188,-84.12487960679063,300.36679642355546,2.49861128463135
-0.8569379888958094,-1.9470221142173174,-10.403938451407607,20.688910586352264,17.797428656317415,36.46495713816648,24.558034867110894,34.03531559207236,-84.1248722020914,300.593564141986,2.3780031691958325
-0.5705398965691759,-1.8126817043755294,-9.957816617901502,21.02686819032316,21.02555140856714,37.515717609092576,24.655260527543955,34.03532250491091,-84.12486621050179,300.2425053870251,1.8396590337151646
-2.183926517708427,0.4615633674670722,-8.862269406972297,13.010461179713078,-16.897421982949666,-3.331867429696342,24.788585122113275,34.03533079781609,-84.12485712450243,299.0821060553666,2.421080947855993
-2.2996271137199966,0.6472272491953951,-9.1241457485074,15.575969698930734,-15.98730708568217,-1.7977049865245514,24.637347214249033,34.03533929919389,-84.12484678267512,299.8679577098209,2.6092094919552307
-2.1180457227700837,0.5438274084398036,-9.231049780015072,13.540535670205623,-15.933602845435109,-2.9989145842490363,24.629242326894673,34.035348331022334,-84.12483490069644,299.8760786444301,2.888015862267643
-1.777773518623742,0.09079711032941112,-9.016764806589384,13.369679692678178,-17.135201803095242,-2.614961837706683,24.563730960240235,34.035358127124,-84.124819988826,299.4768948605266,3.4084478100517885
-1.9337411538325213,0.15266410218313942,-9.174730240767069,13.529247623458275,-15.765079499680388,-3.256047061823614,24.55133542280541,34.03536555396583,-84.1248083686976,299.81273241440624,2.6285098839195897
-1.7948706436250128,0.35436580134788265,-8.958260539814306,12.848225532668149,-17.364559935243577,-4.11847108689317,24.548013990080804,34.035371579346894,-84.12479906702681,299.2450678962513,2.114718418431944
-1.7292416808550621,0.4693169407265808,-9.147541243058022,12.674834051006812,-17.490951838278328,-2.35279291710983,24.682095691758487,34.03538062132083,-84.12478443731456,300.2045123400292,3.269002842064527
-2.1132122315575352,0.37321706050791414,-8.957198062734038,13.165498207465655,-15.509128771418347,-4.199090265436311,24.7877341008425,34.035387423979934,-84.1247729908971,299.6983275869436,2.5230055944259613
-2.1224635183755063,0.3708022372435828,-9.127044610370843,13.177365352506262,-14.399751070227062,-2.88688186669248,24.705177518304158,34.03539395109131,-84.1247634300819,300.58242880137203,2.218804716862864
-1.8944798440460209,0.5086112483215522,-9.153190119556271,11.288434013966114,-15.328192294911883,-4.1251545858914564,24.54901553234901,34.0354000685972,-84.12475495326224,299.7286636494679,2.013406275768656
-1.9049363517226687,0.4591026266303583,-9.09115729466108,13.222497266997584,-16.405085184698947,-4.415093724756674,24.628208990298013,34.03540804600093,-84.12474332654635,299.4214242440582,2.7037375420928953
-2.076842905714646,0.7098797165836706,-9.12781436191496,13.19147470724787,-16.75436352100122,-3.6940936536670557,24.50407998517871,34.03541457291949,-84.12473389808282,299.17321540684213,2.20053208071253
-1.8350483628383976,0.4820004435621044,-8.790632353166153,12.068330098899619,-16.856811830447487,-2.506596498729488,24.769206774542916,34.03542050370297,-84.12472366719052,300.2039997180925,2.236404670077396
-1.8475965553192972,0.4455041704859882,-9.284993650419292,12.156715273717538,-15.812373624583158,-3.6303911782326725,24.754083344879028,34.03542725268814,-84.12471189470524,300.3832953536324,2.5640733791719046
-2.0480599432324453,-0.0024771225766424543,-9.11608206207064,11.582353506016577,-16.76292914473749,-4.13847313771501,24.684166613975087,34.03543284861217,-84.12470203221932,299.65954093274337,2.1409529696346796
-2.2836732738731587,-0.05939268324343133,-8.496077819293088,-11.970649281512854,-9.796416057380348,-3.2594813657766903,24.532734452524217,34.03544085798351,-84.12468868172073,299.77852566270394,2.9521902267844293
-1.9926885693857066,0.4421559007065597,-8.986067874245334,-9.991741902673445,-9.352886720696024,-2.758427952920349,24.71290122748363,34.03544754362246,-84.12467738186598,300.04000492641165,2.486936236827352
-1.9854064235096627,0.689524829684852,-8.83715312885313,-11.28279387473958,-9.59202749271853,-2.257862007913413,24.438524862133825,34.035454613274844,-84.12466348984881,299.2692883573544,2.920054517623349
-1.9050004288342137,0.13431899522129848,-8.877578775566358,-10.70394237171149,-8.692125876943093,-2.9569338381363384,24.494516648043053,34.03546150523949,-84.12465074055157,299.58502964258923,2.726551987050641
-2.074161513345662,-0.17070743326569732,-8.748542431255286,-9.628937807552783,-10.010349820375696,-0.09896367529594086,24.650610314259243,34.035465921889674,-84.12464172377429,300.8855997340789,1.8761091159067278
-2.13267344728942,0.4201460183421598,-8.899401288355484,-10.369963379312294,-10.581534421681443,-0.6242884598098906,24.58082610269937,34.035470865910945,-84.12463040369163,299.59687188151474,2.291999677217969
-1.9292313725290702,0.1027247394328917,-8.752454850360708,-10.62010516951599,-11.092328360892685,-2.67263379511283,24.43176125901062,34.035476131783405,-84.12461960898581,299.4730009462501,2.24366234723008
-2.255868221511942,0.45904292360208704,-8.845624993404703,-9.551473625083009,-10.933573635363546,-2.2901663036362843,24.752926099665597,34.035482116360996,-84.12460767354735,299.4779411662582,2.4987331948012734
-1.7657977227049573,0.39417360632205434,-8.752213737573198,-9.904626285889714,-9.196551565101771,-0.22317597811423817,24.595038585076363,34.03548825583942,-84.12459524862207,300.32537035465833,2.591133009783712
-2.2868350159740913,0.287813640598076,-8.625938335385504,-12.290226638357526,-9.941346148450148,-1.449135282414229,24.59190881563811,34.03549552231577,-84.12457866469391,298.98042361677403,3.360149709569191
-1.8963309075433492,0.132228116822312,-8.806379844072664,-9.093083611059193,-9.36808685042581,-0.35832445154402226,24.49280242135291,34.03550035002919,-84.1245679597857,299.5976070165555,2.18299307220429
-1.8190011006969091,0.1342701116135623,-8.827784274994837,-10.943694758303764,-10.982551673293813,0.2246638056365784,24.582042815662835,34.03550444895445,-84.12455868332445,300.1454043964088,1.8830268071060934
-2.00532169963228,0.6824495256657288,-8.850342990697966,-9.788969529527902,-8.721244586968112,-3.5685716976498965,24.609803618287742,34.03550884682394,-84.12454848897305,300.4367072470003,2.058604834369985
-1.8398551294503884,0.1926033525565436,-8.436949993425484,-9.666738023118533,-9.336893634294508,-4.122703801970968,24.54674354421801,34.03551304513965,-84.12453848156322,299.81067013257945,2.009116111552533
-2.3343136291784727,0.25845429622066396,-8.554885729175497,-11.083797026858425,-9.04769880867158,-2.1636011723773794,24.63726050613414,34.035517435730384,-84.12452679043979,299.5131850274081,2.2990943517497913
-4.5711736891673835,-0.7198453701400771,-9.003792373525133,-18.339208385504506,-30.09920126776277,-1.6604462114356813,24.751078517028358,34.03552273801242,-84.12451303816614,300.6161704301109,2.716839822378188
-4.218456021919191,-0.7013695576089103,-9.12437150465246,-18.312627535439443,-29.272402465265767,-1.0670284532178256,24.702478223385256,34.0355280637651,-84.12449983289835,298.86258073282016,2.6305463242772693
-4.4269429378488985,-0.9741988294708087,-9.27001967540807,-19.44679022817033,-28.99002657259343,-3.3023002449953616,24.707989821315806,34.03553406037982,-84.12448801424607,299.74117343750294,2.4822159398446657
-4.34744177620901,-1.3240590887876071,-9.324836928131017,-20.44165515089392,-29.53984584516283,-2.3171461840060936,24.717525371666277,34.03554040691109,-84.12447458597897,300.5991254977994,2.768929745444278
-4.255788747403626,-0.8883084791638972,-9.122053932169361,-19.123624513563364,-29.32596895799626,-1.6525657765191661,24.747994217664598,34.03554618652558,-84.12446263354734,300.4649592255839,2.4787162291013587
-4.722023633758118,-0.8909931280928303,-9.211543073928018,-20.396363967205943,-30.68843451144361,-1.2721119509601833,24.540712250554044,34.03555317756519,-84.12444876708676,299.5347861997254,2.907284448896317
-4.356518981344609,-1.0196508333474188,-9.409844861422407,-18.82983536946294,-30.264207526539998,-1.4640220996520092,24.931858680547425,34.035557504515424,-84.12443645824597,299.8862632147399,2.394901240811618
-4.2186826287592405,-0.7394348988584277,-9.157416502312302,-17.839302310167493,-30.097577441143383,-1.5157133696632534,24.85868004103836,34.03556111278034,-84.12442226402595,300.2607925639106,2.659372575732776
-4.003144586664241,-1.23030995844325,-9.492068983561063,-19.330872835654052,-29.51067252817322,-2.2640298711799804,24.76086596643078,34.03556404441113,-84.12441198058107,299.92689240509355,1.9478971915298373
-4.275697258012793,-0.6550788390684317,-8.967813413933262,-18.520337895719116,-28.78779757589644,-0.7807018702518647,24.655368467811783,34.03556803335758,-84.12439583122465,300.8401873432719,3.018400815409067
-4.125030255975835,-0.9113593839687377,-9.004197294422182,-18.178866383108655,-29.490589370270083,-0.16283494051732994,24.717459506699978,34.03557109070747,-84.12438148881841,300.5982498444927,2.6526159559890727
-4.0767903232065485,-0.9595840943502564,-8.886109354443919,-19.820238438831602,-30.814712912851434,-3.1207920871553445,24.80631249116594,34.035573398077446,-84.12437138069082,299.6162954841592,1.8779804457739968
-4.24791543650565,-1.1370352061417703,-8.860645904280899,-19.86593299679054,-29.358723333380055,-2.195322837182276,24.655896370975597,34.03557620079325,-84.12436107756817,299.3783640439478,1.9423600613278693
-4.079380808177416,-0.82377830211423,-9.44565367484204,-19.36030205709778,-30.352875771869904,-2.93071352604563,24.62961705682762,34.03557840417242,-84.12434817575762,299.48851478519526,2.359509472746272
-4.558474454807998,-0.8744877843994032,-9.004772235233215,-19.932266983193053,-29.294742082826794,-1.190926243067806,24.80996039543801,34.03558077427367,-84.1243343871484,300.7512104461907,2.52235740452188
-2.3301557341909023,4.31550252287898,-14.094339639194827,-109.4396691199306,32.92556119613841,107.67667457020225,24.797396704801884,34.035582616937496,-84.12432090776699,299.3675920245184,2.447029178649869
-2.082967268376772,4.451413700619352,-14.30507055217717,-110.73179075641005,32.42206975378565,107.64734056043285,24.627407450597357,34.03558430595279,-84.12430533078658,299.2850955164106,2.8138990388980907
-1.9716719770921871,4.250088882658873,-14.190949289412455,-109.11274379062738,30.632405685268928,107.88337469127866,24.64263632014263,34.03558605617485,-84.12429276917435,299.438786425085,2.281590981970791
-2.1643039358744947,4.1233963998435454,-13.939993265829639,-108.95082391683515,30.466835107667716,108.51699937783663,24.55543269998582,34.03558788961016,-84.12427929284972,300.27330505816224,2.4461648656502972
-2.182690413211547,4.112983892993456,-14.248594049583216,-109.95037291920777,31.790871742149495,105.76062144683578,24.713389053990166,34.03559056268729,-84.1242659464915,300.2120252575712,2.4594016968039383
-2.088071167584826,4.043898168022247,-13.810696886324399,-110.49978529317501,32.19960870578662,105.5871667142486,24.691515265073086,34.035592973317506,-84.12424991262964,300.1805881434597,2.918834916402519
-2.4165505724597645,4.497898739374923,-14.073522012706476,-110.3753807439101,31.608606067356178,106.6815952103046,24.51675785130037,34.03559592955126,-84.1242378323726,298.90074329603874,2.256165015183513
-2.220483442837919,4.0773614237404585,-13.879317184461614,-110.0148495780477,30.882856773813117,107.88432850949413,24.694699411900768,34.03559885466103,-84.12422389363715,299.403562253336,2.57548751786384
-2.1776867314265487,4.147993895349504,-14.065419139953358,-110.30639937416694,31.132390812776457,107.45089032398116,24.577268513162792,34.03560164673879,-84.12421216805795,300.2290281488866,2.185246763471001
-2.4905281655720968,4.1446842570881275,-14.41030508868959,-109.54645583327124,32.007323345947825,106.55107847305474,24.646929592690867,34.03560462384847,-84.1241968467611,300.10060308139197,2.8187517710322205
-2.134251352312627,4.2267336686386505,-14.383405661668876,-110.49764348470282,31.976105109875796,106.27053847603645,24.915618476502463,34.03560747652748,-84.12418328322401,301.0527870892281,2.5064961107508372
-2.3457140788689768,4.365760657662426,-13.95319046058391,-110.8807642349623,31.942741927614392,106.83411937933566,24.707385049325012,34.035610917108976,-84.12416484060357,299.82313635645477,3.3860761023481927
-2.0018521703305208,4.59457485513539,-14.132320333926529,-109.57930458740894,31.594753961576238,107.7955772861776,24.696148577890952,34.03561401874906,-84.12415089611893,299.48010015753545,2.586113188904584
-2.550131459516518,4.0473659457858355,-13.855636004339257,-110.66553939136473,34.56168216468536,107.79844148171776,24.65845461624617,34.035616934189605,-84.12414033852176,299.54540139109764,1.9932856764331404
-2.571181978482165,4.255216622928358,-13.9474205403943,-110.33651558546936,31.111182168698036,106.74255914411292,24.500269859955377,34.03562071191422,-84.12412489603824,299.03728599673343,2.884029748199565
-0.11386293761779034,1.7493633818014973,-8.067153389463755,-22.534932841027356,20.788646150367118,11.681197345981493,24.68967926878495,34.03562392463378,-84.12410978977783,300.06446576525997,2.793487248166472
0.10264182836792171,1.8781730495082434,-7.726293569375044,-21.580691793899657,21.381739828074277,15.429176079466332,24.55872859838478,34.035627078840506,-84.12409547367895,300.0967233337412,2.6533529532906406
-0.6449585437042366,1.7966600104832797,-7.629016839809963,-24.755710726195296,21.58250607564673,11.406203594443161,24.87645585938223,34.03563094772499,-84.12408008833425,299.65542048790746,2.8798747294999285
-0.42866101431830206,1.826050935940938,-7.773138911925932,-24.54646280343285,20.22229120420953,14.180493611028544,24.753007392941395,34.03563380629196,-84.12406609908697,299.90217101084323,2.580777009477882
-0.04279711569454547,2.1047734802454627,-7.766373977009809,-23.427879656911205,20.177183409119852,12.796174155156564,24.963051295939895,34.03563595472551,-84.1240502878652,300.25658002314697,2.869890713231979
-0.4061967857724411,1.8340509282464277,-7.9226883309544345,-23.664215736904936,19.923294780981468,15.063094841769727,24.85280335068988,34.03563726313592,-84.12404147431155,300.2684567945406,1.6037959150662777
-0.11144883783139906,1.8945350843100681,-7.7913952944575575,-23.48859547234683,21.33215316826061,11.923023547918284,24.814112287391204,34.03563858769641,-84.12402937173509,300.2380185748086,2.1866107980928438
-0.06788435827513843,1.7534339275420001,-7.984642116116008,-22.791154237587666,19.472129629235972,14.892073521287541,24.702326343552002,34.03563952160807,-84.12401821030348,300.11514260735726,2.0093762394229313
-0.2103054193904045,2.2574009457219373,-7.987076018451023,-22.31963974777475,19.09514927026295,13.228472779504793,24.74926273871888,34.03564098484162,-84.12400423109386,300.0403609489436,2.5238204307838514
-0.42279018371512744,2.293851121911746,-7.785331106968987,-23.044464834038195,20.680036242446384,14.19535439211146,24.826748774617343,34.035642169029934,-84.12399229846068,299.6813502218906,2.15261844685543
0.10942705520117554,1.8088801666927168,-8.054175789844816,-23.090997067440682,20.77102145756915,14.912768136990582,24.923593038371514,34.0356437997945,-84.12397693772452,299.6337057988109,2.7738677968551695
-0.4226787921264753,2.0169047053944578,-7.81541698853197,-22.282277194354002,20.21336315679728,13.458559711101698,24.9164343522112,34.035644837466,-84.12396899918527,300.6089970591051,1.4395139647217954
-0.3855352203042818,2.206432594830262,-8.238034698770624,-22.23548774325459,20.27522309259088,11.742948670806214,24.4930263000788,34.03564674555181,-84.12395479718158,299.38808789824145,2.577047305259404
-0.2425853497767538,2.046823915285651,-7.851094521141147,-23.755826203189493,18.56876061097585,11.386422319402755,24.804370458768425,34.03564779721838,-84.12394045285272,300.5873096889638,2.5793602300279668
-0.2096911782358881,1.582226631940076,-7.682412648456265,-22.33618825884714,18.879318108933617,13.007093688012404,24.74009880680218,34.03564964075087,-84.12392879890041,300.26709355533944,2.125122157081164
-0.11206463678068321,-2.931031851176905,-6.936638308437407,34.40847914387688,-20.014300639326198,-58.03164667300307,24.810872688590848,34.03565221888846,-84.1239150894475,300.3347670062239,2.5180421218104563
0.09744065128478918,-2.4952372043516604,-6.379114321202838,31.83682119473403,-19.33385903347041,-57.5124995361039,24.811321080819276,34.03565379678622,-84.12390363412555,300.58841921319106,2.0800035563217065
0.168411139278339,-2.5334650355557975,-6.407761312492038,33.481269912916005,-19.917879305796795,-59.16610126144561,24.848910810917502,34.03565506739131,-84.12388894821343,300.5447072806966,2.6448055273429274
0.1782979487399948,-2.847800847095179,-6.675208824391813,34.027109023961536,-20.41045168633399,-58.735890202377604,24.7235006927457,34.03565641462316,-84.12387312191271,300.7561314445709,2.849688895714083
0.02950361095569734,-2.5955410327692867,-6.624733703022183,32.48919754083013,-19.70620284672077,-59.10906719373852,24.564633420406782,34.035657230038815,-84.1238577585504,300.0808119971571,2.7574894441989874
0.4327511676448418,-2.423616564948384,-6.739582379792404,31.044365339979667,-18.805154100115058,-57.72374014152669,24.743579336890466,34.03565828486441,-84.12384377120419,300.5336514082958,2.5157348692703323
0.35791898427339036,-1.9684476752583149,-6.449156167413724,32.41221390819661,-19.465204891507696,-59.77772422630327,24.68031013667677,34.03565913364758,-84.12383160180319,299.4792293318401,2.187462786550157
0.2433171943813121,-2.2149635871617064,-6.451512493380527,33.23872444134641,-19.840745480655972,-58.54752237777824,24.793690553844105,34.03566129161787,-84.12381574908882,299.9267950866114,2.87755766353062
-0.025037286666542563,-2.5131277329646706,-6.093575360376313,32.64221002886104,-20.045216196590744,-57.62088297704103,24.843885654892876,34.03566403430217,-84.12379811226437,300.146632332782,3.2142103597611382
0.15520932961254696,-2.46163150335717,-6.428359157086192,32.171763667680224,-20.358590958613707,-57.993247382930974,24.927309554607604,34.03566671439121,-84.123779877209,299.56588224133344,3.3171951078425574
0.5490319077263304,-2.381218568943743,-6.547677267825458,31.680506831202102,-19.875037635615282,-57.10662660617987,24.940751152449728,34.03566881895719,-84.12376614940334,300.07456446766486,2.5006169771756768
0.2452868539617654,-2.6567590171840134,-6.777866994245379,33.27046952743708,-19.487760263394946,-57.77500145193612,24.779964983887854,34.035670119799484,-84.12375075731057,300.36334339263146,2.7712973460460146
-0.05896580588653885,-2.7041092727664666,-6.541541083139649,31.591119117844286,-19.94609717033302,-56.8955616640541,24.921723326810593,34.03567094523162,-84.12374012841859,300.2116475373635,1.9121646543438906
0.7221576552714842,-2.336318375490618,-6.434556590465046,33.63569416010634,-20.274899388522126,-58.66903417293065,24.6440026753665,34.03567247203317,-84.12372669499449,299.8997820548486,2.428690021137082
0.1094796110174844,-2.395153099678375,-6.3638640784981595,32.981530108134706,-20.272740192480747,-59.954089805289726,24.904286128123328,34.035674412780885,-84.12371179177036,301.03950903029124,2.7021903514709966
0.11856470207669512,2.597621669618427,-9.287231835496137,-3.5194794709832156,-1.5769172999176728,-0.3866556700100078,24.95792236741434,34.03567827597411,-84.12369518080139,300.1799080607163,3.0902702016002097
-0.31730326210846577,2.5162092774370484,-9.800569790874555,-1.5903735985187555,0.2832108959664261,-1.2826611950433566,24.805494426309224,34.03568096510181,-84.12367982921087,299.976614065518,2.810502539919939
0.15316681086526093,2.8711392997138483,-9.059562274335175,-3.554973989514193,0.11828519375511348,0.9819950461941133,24.80838999445127,34.03568313324288,-84.12366766732595,300.5120620253593,2.2282468860183187
-0.06378667185733555,2.7032215193770615,-9.254922298080123,-1.4753718887349172,-0.0953064751378937,-1.2367789991033,24.692619177676363,34.035685778383595,-84.12365377420227,299.56300626913105,2.5533383327144343
-0.19178311997694206,2.9392453893832355,-9.252704323601408,-1.1870268340268455,-1.72132427675867,-1.8961007592747943,24.874528275002184,34.03568830244818,-84.12364201462039,299.5247404908336,2.1758560558383633
0.18818332230977877,2.4324964267823477,-9.331240000627911,-3.400257690896078,-1.599117807225079,-0.49401157322015676,24.89625616329792,34.035690420600595,-84.12362717060617,299.8910612927022,2.697955124322398
0.3260789103956057,2.732270147500684,-9.038306548969462,-1.562530079897615,0.1484110581330319,-1.2260046856695705,24.770273609765837,34.035692132952164,-84.12361539488136,300.2986021174265,2.1414675283069355
0.4331340292747748,3.1248343906202805,-9.245570945815517,-2.693981032136941,-0.6320053005632839,0.8115992377627398,24.813529360832035,34.03569444106451,-84.12359976320745,299.6253651055585,2.844008107489539
0.2236049392958885,2.575643135120634,-9.326056720386472,-1.4724018544898256,-2.317219518206624,-1.5151129186776926,24.694956795371656,34.03569561039805,-84.1235843920783,299.6316746273674,2.7648177242966145
0.20476967341647107,2.9817731585895353,-9.340664096305359,-1.646391343591497,1.5050731222252167,-0.5522982943292899,24.840778439435695,34.035696639383126,-84.12357051711648,300.14608072297307,2.4951831610398507
0.02507441289803204,2.585226832865791,-9.322001636044954,-1.3118390771957453,0.41113248547549297,-0.5700376657458421,24.834716848483225,34.03569696091898,-84.12355672875499,300.5643409224348,2.4707169529166033
-0.13618462170145895,2.7565125403727073,-9.067331053880595,-2.8233158629737343,-1.536819474874437,-1.8569465404844903,24.683856143216538,34.03569709754991,-84.12354072956205,299.9123921070426,2.8658904495025666
0.07286802977591868,2.9436470972583924,-9.035256350366145,-1.4225618802627285,-1.943095508806215,-1.1871542586953674,24.784977312444894,34.035697122442954,-84.12352942962575,301.11751515772943,2.0240254968908657
0.021016231185132732,2.7471173203113266,-9.107387254851933,-1.8576034873586194,1.0160402359565741,0.3857805336772443,24.654516764818545,34.03569720607545,-84.12351680411614,300.06946345965866,2.261524203632571
0.20453795992041832,2.7949232279684426,-9.416247614974365,-2.6240322231998316,-0.996769513791075,-1.8174215475593978,24.794883352516045,34.035697854355774,-84.12350479878289,300.5110130613958,2.1549279463737014
0.021116086938089085,2.123757044531899,-9.245608505054498,-3.22323699508095,0.1606732910247195,-1.9900797280846287,24.7799493846493,34.0356974563483,-84.12349075381468,299.19924989798415,2.5171725442972672
-0.4456387580310581,1.7121481886651373,-9.047074146194117,-3.2734200433472482,-1.3935698677810633,-1.5838951146668891,24.81178407691309,34.03569732454921,-84.12348023384425,298.73615868292734,1.8845279942829782
-0.5315270935412459,2.1113979985887905,-9.497483915964922,-5.103772272562969,-0.5916015082056985,-0.2767916988128323,24.87927502907876,34.03569698995155,-84.12346642556672,299.80374424935343,2.4743637485104224
-0.2810108866120268,2.139263768519689,-9.164663845179087,-3.6768495053635206,-0.7837466399409453,-1.3028379779722528,24.651256720612135,34.03569657755127,-84.12345471352211,300.66564689214795,2.09972715988383
-0.3830413411157048,2.0728605919985488,-9.405855364365497,-2.5001815852999663,-2.3843550307594934,-0.8964768243999777,25.002173348471132,34.0356964472447,-84.12344096211126,299.74706990817316,2.4632818138169625
-0.41836649268076515,2.2285220154371843,-9.53535457927588,-4.804795121618637,-0.28595793993533974,-0.6177905967941726,24.728995618567094,34.035696643953344,-84.12342558892547,299.85030522262286,2.7539375854665384
-0.45158382305044054,2.3312668968081294,-9.645006877051454,-5.230491547466182,0.3911011503021984,-1.149863654993098,24.767121057365355,34.035696314934256,-84.12341207679927,299.8310681654813,2.4213052747128696
-0.5951753106427717,1.9085420554240584,-9.038640508367129,-3.3387941591750994,-0.6919698891304922,-0.6587495249906368,24.66809794894821,34.03569637602071,-84.1233990032785,299.3148331715357,2.3417359218225795
-0.474405202332569,2.154671152084466,-9.475336242662193,-2.5521657906765123,-0.3068238031334318,-1.996646547308396,24.574453257427315,34.03569547441243,-84.12338540029607,300.6778287796341,2.4443156134198407
-0.4258857107240921,1.775431138152397,-9.501794368706655,-3.430541159464871,-2.038040215093078,-0.582834195790439,24.870835801141574,34.035694820773124,-84.12337508150623,300.4871449034382,1.853669582395895
-0.23818844446182402,2.259614132760641,-9.734681901980213,-5.22310029445087,-3.428282050213829,-1.6169502775552995,24.702979249002016,34.03569358855541,-84.12336036613748,299.20152793386694,2.6492049708463092
-0.5620699414316308,2.3127970386251397,-9.17934366180965,-4.176138587122205,-1.360187169811451,-1.1541335992860717,24.682366816498387,34.03569243363299,-84.12334694533769,299.9189346524165,2.416829247053198
-0.3036055056275089,2.0840788347564163,-9.11361256973815,-3.7630996719637064,1.1721449759610212,-1.275719348934846,24.821449516764357,34.03569044312664,-84.12333230116745,300.37169437266385,2.658080516811208
-0.3455013458556525,2.0975097897807076,-9.5824333708824,-2.6378270510664206,-1.9787259959460983,-0.931989043982724,24.77751385298508,34.03568926036682,-84.12332291077176,299.85480814308494,1.7013033558892057
-0.21510504358829619,1.9562071654061584,-9.177332318695868,-2.608075587506595,0.7566974477266251,-1.5100302238704877,24.67308192249318,34.03568657200831,-84.1233077128803,300.5743375216911,2.7835382596978873
-0.6893245383213206,1.9392789852899766,-9.176349353518985,0.38383700629687967,1.0464963943957624,1.8888073764320552,24.965534865561406,34.03568375455917,-84.12329132159529,300.0678893689014,2.9984616115109786
-0.4863415334243587,2.088948991380659,-9.83746330890451,-3.174812312834301,-0.9606263508030835,1.6783008864571471,24.865215762493122,34.03568079081664,-84.12327901682623,300.60369482810484,2.295211089522374
-0.6334326786569486,1.6466882543357393,-9.97668882387912,-2.2074764900313415,0.9540352772221792,2.5657128892805794,24.84701187462814,34.03567844848521,-84.12326747960071,299.8614973175518,2.1276361346274166
-0.5893554783055379,1.7152954465429715,-10.04249726435954,-2.815756706595839,-2.23310284626256,2.9658478634537424,24.82751873266567,34.0356762996698,-84.12325557817225,299.8384362207034,2.1817670265523468
-0.16543561503151288,1.5037432143164862,-9.429401579823464,-3.0277750547650664,-2.547110487271985,1.304140423104271,24.73259610238855,34.03567524487443,-84.12324502061053,299.443916803549,1.904740336458548
-0.4562128412144582,2.0745459671551627,-9.518875894929664,-2.9413659492067152,0.7038196407325328,2.1460083737770943,24.961085032082472,34.03567380507029,-84.12322860180586,300.2434650150636,2.9573191642571723
-0.025618137123511187,1.3995870054016968,-9.610960187611173,-3.800174167931913,0.33498206166305555,2.8212955585498847,24.993341654479718,34.03567289461136,-84.12321820079005,299.87345956954437,1.873371173465946
-0.45013565464456734,1.6916053317439148,-10.331547763470365,-2.7920632315625964,-1.2858436271975848,1.9103311845180384,24.675043739177248,34.03567068626273,-84.12320245038033,299.1660273782338,2.8612728980453443
-0.39303606251972767,1.743670673604633,-9.938100854514742,-1.394676831138121,-1.1522548615573207,2.57446939558727,24.78295620298298,34.03566845783248,-84.12318375633888,299.34759226933346,3.382900309932426
-0.6333522474977822,1.977066606195457,-9.622269983107925,-1.5781056195750267,0.04639411067039345,0.30192756419631706,24.8280303002048,34.03566628487502,-84.1231678542258,299.949097953229,2.8868141520778905
-0.5491535113537729,1.9280848793909515,-9.717793295526478,-0.5628927932880925,-2.162828165354979,1.547670362576666,25.035340044859343,34.03566436947894,-84.12315505524427,300.3551651940574,2.3296071418933386
-0.2841112011898208,1.491739663954456,-9.30039484045238,-2.053404376996863,0.17341529645912535,1.9966520811450317,24.93186025636746,34.03566294137272,-84.12314446835923,300.251122081534,1.921258107018715
-0.6854741738898598,1.7349012219721631,-9.765772071342017,-0.6352330569656659,-1.247883878786228,2.836997409895507,24.988029032040366,34.035661423742646,-84.12313303130158,300.2921530176943,2.074676703340935
-0.29045775261783213,1.6102365243099255,-9.36132097571473,-1.8951214971458048,-0.1771106637945692,1.4065803705151623,24.925202072328876,34.03565880030512,-84.12312016287008,299.6859292548971,2.3736894524743826
-0.465193671945118,1.7012374030340034,-9.674819721068955,-1.465512608764027,0.06942365921624538,2.1499145303483918,25.071310291543142,34.03565576041789,-84.12310604378995,300.5540626221896,2.612940125487463
-0.01629747877656229,2.2736832700743603,-8.723559174357144,-4.051445779225767,-2.516372980429729,7.392633144695969,24.74991468157336,34.03565342542138,-84.12309825065716,300.45710290472886,1.4843269936923933
-0.12329740405859292,1.8251315328904598,-8.691264646958828,-4.558646974560639,-4.239175021816087,7.721016346753492,24.612094493158455,34.03564911589294,-84.12308344508257,299.5034146492084,2.8107758745325433
-0.21442230852339844,2.5536519476868373,-9.496290780501248,-4.349397192654759,-2.4658958609909813,6.436014722099385,24.994196138267398,34.035644676532236,-84.12307053736376,300.2939283761062,2.5032154865765226
-0.1556377702320803,2.136762388487831,-8.97989359312635,-3.584172924477094,-2.851449514071425,6.675813075780319,24.8503157971614,34.0356402429953,-84.12305976552933,299.631685369517,2.1543003254698747
-0.21248246790236094,2.1797637069455993,-8.943767276579278,-3.0782368344391657,-3.021520883761634,7.99247926955092,24.869903901567174,34.03563576119475,-84.12304805143684,299.746465669676,2.3110337094505136
-0.5108788900246153,2.0312130945276468,-9.146637230993841,-6.790759848826374,-3.3374258765659466,5.76130396657102,24.636621374818265,34.035629656888716,-84.1230338597625,300.6539886471615,2.8640077371927632
-0.34856648853614763,2.253696891795982,-8.662709220198794,-4.14457157633763,-4.218399832606801,6.678069597240059,24.83444919316574,34.03562386207634,-84.12302146675052,300.30423178664216,2.5487979532119738
-0.11616954032307636,2.0064297890312517,-8.819449070056237,-4.796810406012937,-4.623556918870616,6.170387859047584,24.658399634421123,34.035616786476204,-84.12300922199567,300.35233941533687,2.673819251510397
-0.1509516893018232,1.9678132408241145,-9.052660089555514,-4.309063183798865,-3.871550834090067,7.801351139372489,24.720943537848278,34.035611768088955,-84.12300036912835,300.8180892738418,1.9212097428126886
-0.4513258265366554,2.166143292136977,-9.005199437907436,-2.9422748413770274,-2.4552739314038083,7.170154208655178,24.610869165559205,34.03560605098215,-84.12298793360281,299.2471101935029,2.5472429098090896
-0.03652373658740993,2.3103823727838346,-8.804229780127324,-5.426474070676704,-4.509899160702817,6.446652260728423,24.62461777733846,34.03560033528047,-84.12297628956205,299.39326179480673,2.4240947150472034
-0.11683062132288914,2.0179446491012483,-8.979889095348812,-4.703534184094387,-3.5400463448132222,7.347655012378053,24.739100244251894,34.03559336193097,-84.1229620266336,300.9451303150427,2.966236459185878
-0.08393153520610486,2.535597950246136,-8.779973932335524,-3.9719760294332747,-2.6245787096407733,6.8727470901912495,24.737070892963064,34.03558767955767,-84.12295217724264,300.4001407931066,2.1496364684704705
-0.12752493875537302,2.1457285297243014,-8.859794136400458,-6.73570372819329,-4.719312756620784,8.648055942392594,24.771468038684134,34.035581020953074,-84.12294060233792,300.51908244831026,2.5238545382616975
0.3288218370444842,2.5216999637382926,-8.766747095554205,-4.733743362602823,-4.3274012303468625,7.263437057501148,24.69191063201449,34.03557473823141,-84.1229298627019,299.9482495784602,2.354696073654459
0.0644402503627457,2.2393063770701027,-9.778711812571386,-7.900871860218695,-2.3618407229620946,1.7243000451563888,24.860300878054943,34.03556917360765,-84.12291995287838,299.8722761540275,2.1441496112854894
-0.2828625021859211,1.8973301542044518,-9.949516120914488,-5.044499609761974,-2.8826455132804254,1.1402408796655756,24.78702119717448,34.035561573943056,-84.12290662099755,299.32384863691647,2.898395554170919
0.007605887780799209,2.106711079777243,-9.648702958570643,-5.518951111258037,-1.7986393647063632,-0.07412889418539026,24.74020797061475,34.03555591423416,-84.1228933707587,300.3439924661522,2.670081583023457
0.03337298147001508,1.8833055763694604,-9.752461029417194,-7.165480369960988,0.05319287915712101,0.4496821343106008,24.916542510564152,34.03555098440938,-84.12288275554313,300.14487016083336,2.179598773054055
0.0009833888706929639,2.1388730306660517,-9.917260680800588,-4.553483759135073,-2.0060937720944074,1.0315902313433922,24.903293509710192,34.03554484206325,-84.12287173524501,299.64571369239087,2.3788754753910935
0.04507770390919841,2.3182001338929856,-9.69891954738706,-5.680310734835494,-0.6570167288184665,0.7143517780460915,24.709020715083664,34.035538407492524,-84.12285931144947,300.84976731426997,2.6241976796301603
0.06228264022055985,2.3357268397560844,-9.542534167019385,-6.39722348147676,-1.6128121066547538,1.1657282876650958,24.84778862784798,34.03553429391844,-84.12285035467029,299.4117341445667,1.8342300144547221
0.14234761363929208,2.2230045041590096,-9.681062947619697,-7.389167520392186,-0.960994912539479,0.3618653045877941,24.967851370227496,34.0355291419339,-84.12283812521432,299.93840154326375,2.4573197861055496
0.29255569548364535,2.0315248587439267,-9.661274973100639,-4.990891430108739,-2.5251299155107043,-0.5161703534044207,24.951913131663204,34.03552341289714,-84.12282676901002,299.98924670892876,2.3813802720152095
-0.30438259157350933,2.282155776757488,-9.563401754743015,-6.0663392893808075,-3.377325997317197,0.8634827153516026,24.743916362250623,34.03551524252566,-84.12281474361026,299.88977849519705,2.7853719199653617
-0.4683932321021732,1.848233733530618,-9.82453279536967,-5.695199570489736,-1.8100470927176462,-0.2232516061459232,24.960365804572458,34.035506160830224,-84.12280267385728,299.72640010884487,2.9201218767432104
-0.4640304370240965,2.108808831252982,-9.476513008593345,-7.366525815876699,-1.1812740347721025,-0.16129124876388856,24.863728711638135,34.035497976904544,-84.12279241894034,301.5039883797317,2.5501113751810127
-0.17574592767296904,2.300451294407342,-9.495367393910627,-5.871559164301476,-1.85289564841106,1.5408632238474844,24.93003642603465,34.035490239888915,-84.12278323667158,299.7598693208199,2.3455786449608635
-0.21451074550170343,2.016159358343421,-9.485292536321037,-6.520879598647451,-2.805810759449334,2.3141575350924377,24.974242981258364,34.03548156987927,-84.12277291320999,299.21527322076366,2.6326918147918676
0.24577801933731977,1.9852584547897605,-9.7687080453826,-7.925559308788483,-3.2459198788821055,2.5162587604571556,24.80931834541256,34.03547454832976,-84.12276514802072,299.91775049061016,2.0586191854824967
0.0015558220479003348,2.126781419864091,-9.441453418850939,-3.3010440623248845,-2.062470936103908,2.402806434676617,24.86342648226088,34.035463706165004,-84.12275446881716,300.09634362298465,3.0250443058553036
-0.15865087848948495,1.8557437935961087,-9.428707351176506,-2.0723555217649365,-3.579850396018123,0.781733952851953,24.825624178849537,34.0354561615965,-84.1227465258721,300.04440055093437,2.164120916162838
-0.21520366708624297,2.5571084614446637,-9.179062305691073,-2.0472295510237193,-0.7069965752256175,0.5743330607996395,24.876631940969755,34.03544724118656,-84.12273653953362,300.41811644081315,2.6300529068013194
-0.19616146547029556,2.1377586922495277,-9.341561802416308,-3.14299014041685,-2.2557479368632745,0.03292850369053091,24.77570804747014,34.03543709209866,-84.12272486628784,300.44739341395615,3.0305230242855936
-0.5106333936704891,2.061448746713661,-9.461420105989319,-5.003864474686007,0.07327807269142694,1.1565198296624426,24.78374645832456,34.03542866956603,-84.12271412553739,300.18373186521245,2.6486707203969693
-0.3266544671121123,2.1569600653090983,-9.679873123076744,-4.012489559778813,-0.7833927745411438,-0.01835484255363129,24.82788645885483,34.03541984003163,-84.12270345933186,299.6976757112505,2.700426384097991
-0.4521193654255422,2.4175681105561813,-9.505531856052032,-3.2973448753417958,0.02313026261233231,2.2374403225268975,24.66452078398229,34.03541152797381,-84.12269392265019,300.1793660603764,2.4790638675362247
-0.30367429355219233,2.392351525941356,-9.450884407635792,-4.641578434720492,-1.6572140897494547,1.0175776520431081,24.842510521354896,34.035402341262966,-84.1226827501506,300.25290184459635,2.8191629082890604
-0.27357181469915814,1.9334176006864747,-9.719459230375058,-2.5865559439856454,-1.5045152739873475,3.717238918075139,24.803486246856057,34.03539499605692,-84.12267414538304,300.4044218188929,2.2127142529152635
0.07719904147285472,2.368676665196731,-9.73295143253182,-1.4213071904282113,-0.46786071266636786,1.2058669054102211,24.853876037517583,34.03538533999907,-84.12266077416972,300.1921778231273,3.176825593974769
-0.1077161130672798,2.217543479232855,-9.68013140074896,-3.2317410786634464,-1.986361468107154,1.6691724316345757,24.883648605230324,34.03537858621461,-84.12265147601312,299.78367405808143,2.214681552919862
-0.1492517173974269,2.1391785409739175,-9.492705408628641,-1.9546371392900714,-0.8144535456850257,0.7633451103286748,24.889588648690502,34.03537077018951,-84.12264006753549,300.3173739193791,2.651383937093651
-0.6846502501767681,1.8824590200997453,-9.539228007800013,-3.9996167456108256,-0.9025653059978709,1.3283707266201221,24.686161394365257,34.0353641913709,-84.12262954586632,300.2997901089841,2.3608997193843058
-0.5932539083646665,2.485161940113577,-9.728623959997375,-3.126488600769992,-1.6684493674192653,2.476803786201943,25.061638352195523,34.03535653087839,-84.12261974345583,300.18131327906775,2.413384401079601
-0.21468378896499501,2.3990879574371693,-9.305603632412318,-1.6276353882571728,-0.7879262648938409,1.7170478705463477,24.695138200349792,34.03534915222633,-84.12261070368982,299.52147967909826,2.2727439528940123
-0.34774419747273944,1.9091014326136535,-9.054931262223745,-5.361780644232769,2.2374203341351344,1.9618877384425488,24.824342213392388,34.035341207519885,-84.12260044050653,299.61810475622525,2.5156047293682584
-0.6747438438652336,2.254685584247006,-9.387560965096323,-5.702300778653811,2.6018246170937123,0.008929578500105562,24.989768831711483,34.03533243072408,-84.12258907376467,299.5111703628561,2.7828283516924173
-0.24374336189899798,2.0590082316875216,-9.139178831589588,-4.178319284657615,1.9331681689962636,3.2202131508221994,24.8711180976959,34.0353268046883,-84.12258196498725,300.67343504344075,1.7607072173919343
-0.23425581252680136,2.344220569584242,-8.866441056908517,-4.8217253646706375,1.96638362647969,2.733681711566604,24.957059131118474,34.035318726707665,-84.12257126902787,300.19930382006453,2.592112965775407
-0.2742057812452071,2.2525196150515705,-9.513551353339285,-5.99326893326844,0.23739547731653832,2.524251987576665,24.805079293627475,34.0353121419488,-84.12256110095868,299.78128345631046,2.3114467704858974
-0.18025750700905468,2.0874926708816672,-9.363152874084447,-4.456308330458395,1.1926559370427805,0.9234058029572386,25.092284562239524,34.0353048111899,-84.12255039955814,299.2151880077301,2.486940964156575
-0.47406892095307895,2.158797075138399,-9.299674693346827,-4.286792522550324,2.331378673814566,0.8537385637996496,25.028061759142492,34.03529768028727,-84.12254097274578,300.21126121719425,2.286206396685106
-0.39333836306595615,2.3021224238180023,-9.422338513767619,-4.610275764501258,1.3700115641177835,2.7534879472351603,24.89522863831783,34.035288882957076,-84.12252890323857,300.2501017556818,2.8791349030205335
-0.27011359689662523,2.347517214708921,-9.439990459234705,-5.178515882857575,1.659635511572508,1.1085623454464542,24.86112005041439,34.0352831849485,-84.12252124448506,299.9869486768028,1.843568191962597
-0.23113018288837422,1.9954900390011052,-9.244132918911461,-5.908099643158419,1.9499595103559875,2.241978281746499,24.962044477892118,34.035275463225204,-84.1225104690278,300.18557580975124,2.5516362403236807
-0.40514020411857293,2.1738004350896567,-9.313225813101186,-6.092265815341276,1.390702720123202,2.650114561537043,24.92639277332344,34.035270142038165,-84.12250140368536,299.5383378176149,1.9898450447848226
-0.7670473626395546,2.2540406607669388,-9.068370147267649,-3.1444448057950547,2.26785001432997,0.8163621499279234,24.671054317886853,34.035261467200215,-84.12248540252492,300.3235456388551,3.4249520169765053
-0.2863366648567215,1.820002186423071,-9.49998220659754,-7.266789830105036,0.29955389525298615,1.0178658827451061,24.958553733125978,34.03525290920163,-84.12247171837554,299.80292503992786,3.07074763921399
-0.5354929275145534,2.1910433201080703,-9.30912438207826,-4.1013129977238245,0.7797237925017466,-0.7026354884713057,24.824554199775772,34.035244186284324,-84.12245874289799,299.3525172619063,2.992739244858041
-0.28803406896229605,2.15795223453311,-9.103836598209956,-6.575547266276288,2.057651303808794,2.6045461827977614,25.080001871176364,34.03523649389813,-84.12244717737629,300.5728692087688,2.656317739895316
-0.6945489007426562,0.541498835206164,-9.530983937753483,28.26335298370968,11.125504352375849,-23.151459744965365,24.81020428005803,34.035229894494805,-84.12243732592499,299.7930462156281,2.269019709197037
-0.704589718906507,0.7657432476783391,-9.509394015815507,29.64865594245233,11.953506016477016,-25.176671365426284,24.899167359208253,34.03522234087306,-84.12242450412519,299.8403459900155,2.8178248296290653
-0.4003514631609135,1.0872486844089981,-9.830081267847733,30.793731919922074,12.141316415210037,-24.096403833229008,24.875070037730413,34.03521736804107,-84.1224165191873,300.2346974359234,1.7891162160293195
-1.0160809372543966,0.8654643893530238,-9.626529209812052,30.062642128490634,10.43552294339935,-23.732284987916263,24.990761502992505,34.03521079415906,-84.12240687960244,299.9378555385909,2.2361252652205508
-0.827676828975916,0.7830546507678118,-9.962608566830617,30.480316283779114,12.626771379778095,-22.521685366306393,24.862783123872568,34.035205545013,-84.12239805951091,299.9350554836911,1.9450396415085875
-0.9271380023843183,0.8671166504068631,-9.666571918774949,29.595062790648974,11.112742996998978,-24.532202354632847,24.778063632625337,34.03519816034363,-84.12238464660604,300.3217578740381,2.8843996922305766
-0.9372756138153246,0.9908779635229139,-10.249528895469517,32.26992223995384,11.36553256220396,-25.256134439288935,24.90940895279746,34.035191739290696,-84.12237323406758,299.9637930975291,2.470824303253702
-0.47005222786744205,0.8332346872201343,-9.572288732891442,29.87645221288598,11.791029115222655,-25.736239271556286,24.906815685585542,34.03518591681898,-84.12236343850607,300.01808965132153,2.159245479351976
-0.8505583224546004,0.8348364234888593,-9.70308112316448,30.122717411749093,10.457194490745191,-21.43496795101071,24.890347168990253,34.03518077494162,-84.12235402103896,299.7286679447546,2.020060818397397
-0.8737597758403257,1.1173385306931312,-9.434263406420119,29.598258718195122,11.204564489078734,-21.776043778480865,25.046480921945086,34.035173967246784,-84.12234344547655,299.82322101839907,2.3986418267014047
-0.6823258570472646,0.9430723196405385,-9.444121849753575,30.969141236823816,11.750712630660017,-21.312510390240547,24.820641826872464,34.03516622037827,-84.12232642647933,300.11122289364715,3.4780268838073147
-0.7541394560637621,1.0379660472761811,-9.674848361078393,28.196061731471282,11.417206585056315,-23.43260958469842,24.897492850484163,34.03516080059096,-84.12231273453241,300.6573612347028,2.7179058098192064
-0.6486858358002088,0.29897359566332804,-9.548793043266016,29.260381509305635,12.891964760219176,-23.61702593281187,24.896968050203323,34.0351556627461,-84.1223016343667,300.5739890741892,2.277365798987048
-0.9384395392856453,0.7435004460622273,-9.569563624629351,30.243730131391416,12.172411874638284,-22.08804705145051,25.03245370429004,34.03515150890067,-84.12229394712828,300.21961146821707,1.6437894795034818
-0.48321199677085025,0.835159432982614,-9.440410519733861,28.227461658217507,10.871181086506429,-23.213017367415773,24.98340853825531,34.035145871845735,-84.12228212915433,299.9007713385905,2.442436425651415
-0.6313164612144972,1.7639472529076703,-8.6252798377026,105.76772413982955,-29.725013905504426,-90.21157819152496,24.744582879753576,34.0351376059378,-84.1222673737617,299.1124123765299,3.190199409287745
-0.33821590746854074,1.8527066763849276,-8.65295104848573,105.12587611484551,-28.98371585856322,-88.19045525284697,24.884380671147557,34.03513082869398,-84.12225408824062,299.6988290101112,2.7944167406911116
-0.9161179452435005,2.0294726039070055,-8.510041014412698,105.36995910787678,-32.60011418542695,-89.56907722262453,24.72573027243694,34.03512433443736,-84.12224012968734,299.5042999696814,2.8673321517964743
-0.5396475901047053,1.7414082918951936,-9.191728922456447,105.161222040926,-30.25179091810992,-88.68367022684873,24.746137477959724,34.03511866932476,-84.12222895127934,300.28888111033115,2.347006188045044
-0.9345229532139814,1.9322978757508567,-8.633640228399125,105.87227718731889,-31.16676368752628,-89.65258004354197,24.832503525010853,34.03511145751242,-84.12221401674748,300.5853174746269,3.096093792893741
-0.4194941095238514,1.9269869878404258,-8.467332500189713,104.47706306661449,-30.55548578944648,-89.60751618493829,24.671580046443033,34.03510496581897,-84.12220390200713,299.78100960276225,2.291559175327742
-0.6041733912319511,2.1583085497318124,-8.362161560816364,106.74581015984496,-31.095645461280714,-89.66775309078652,24.763702347618917,34.03509472894757,-84.1221919586023,299.90247218850027,3.0777284677056764
-0.9610863840060206,1.9319202760777618,-8.368983859835959,104.3170454869953,-31.67295446445918,-89.05861425320914,24.854218247909394,34.035086892250405,-84.12218447879366,299.6159070207714,2.1596740375276253
-0.6286342550830772,1.9711722198144388,-8.625436452443921,105.09555374508481,-31.43596653384536,-89.86179752450406,24.64054597811441,34.03508034261801,-84.122177944515,300.58088196055223,1.83684647171529
-0.6801247251439192,1.9820963189794896,-8.625622713479803,105.98500095880388,-31.304703400821843,-88.6594796893129,24.764868265183264,34.03507182775563,-84.12216976604357,299.9072930251077,2.352286684717406
-1.1860444592108341,2.0427724828942977,-8.586432450261684,105.91824531460472,-29.086046769347885,-87.81649657637247,24.773457316060853,34.035063312624786,-84.12216162565934,299.2738359510607,2.3480897420231024
-0.8820809106097607,2.0309708553800587,-8.519993187740958,104.26151562321242,-32.895729807007584,-88.6178077368283,24.857202513499633,34.03505506384768,-84.12215408028035,300.0693612001174,2.2372928681427844
-1.0588467560374637,1.778791807284018,-8.55553528701824,105.96378068272708,-29.154192972939445,-90.06255864531369,24.719824757860707,34.035045206538825,-84.12214564418873,300.59839107723394,2.6120569785083836
-0.8289410062871329,1.967997064816126,-8.261395236702723,104.64871260930039,-30.24498563387876,-90.22187870106357,24.629245152873388,34.03503594822913,-84.12213661774368,300.23681710390946,2.5726738246465874
-0.8511521513855483,1.8355530510019533,-8.330739572662749,105.85672101530555,-30.458811277982004,-89.41242062702658,24.739569344964117,34.03502595817001,-84.12212792420935,299.8762730997301,2.6622210424435315
0.9160267650561559,4.216977344385555,-9.47156997919735,26.035682943620458,-45.939273846628446,-9.94059328311793,24.63536085627602,34.03501958816791,-84.12212296248921,299.5198723970799,1.6387711770997815
0.7854375799516861,4.120698475189713,-9.783243911931605,26.380923486116394,-45.610783034471204,-9.489154930622007,24.788429162714134,34.03500919962045,-84.12211392827362,299.6955103636698,2.7677752198323957
0.8721427110998695,3.858304593042427,-9.802155954906492,27.066070171655124,-43.50291181917178,-10.947777626468193,24.55424946321356,34.03499871381465,-84.12210581854958,300.071019232045,2.6920107353765736
0.9800306293087998,4.1897164700476655,-9.509670916147472,28.229840450006066,-46.27875087429242,-9.73533307847726,24.57236414378344,34.03499002011986,-84.12209986145201,299.8224951533028,2.160924007044319
0.7344076152514456,3.990438102183924,-9.651126980931666,24.52946572228245,-45.21725341821163,-9.350577977087745,24.68868434278097,34.03498063864611,-84.12209316726913,299.83421755665876,2.3557532207450826
0.7346558744483562,4.536405342209654,-9.306977685341685,26.719903647918187,-46.45671077458909,-9.540188730111895,24.70493699080859,34.034970671369976,-84.12208525057197,299.6316663377939,2.5791842543250265
0.8443190625444691,4.164085688224938,-9.26108098261804,25.60655331346771,-46.30057341194305,-10.27843108939038,24.57339830531179,34.03495965201116,-84.12207510173133,299.7103866579953,2.9962482331435285
0.5697508740633332,3.907693277394214,-9.294180901617208,27.795505988079455,-46.405623046638226,-10.556425672952383,24.777645963666078,34.034949110161364,-84.12206338708879,300.00977628672706,3.0975555357824285
0.8336592724194599,3.866639897651553,-9.706144119420598,25.74209466825525,-45.35203213751778,-11.07843599863644,24.815407725227896,34.03493803931424,-84.12205401699475,300.3131311438295,2.922834353742511
0.8280237889651311,4.102837937885952,-9.625389279976668,24.945564564253147,-44.48373898655131,-12.856745036730059,24.866385329414367,34.03492742390216,-84.12204427778764,299.35153533402945,2.8823314749494413
0.6854053977198278,3.976572166357395,-9.470061073693962,27.300139278168153,-45.133054422902894,-8.741637648051325,24.826726063244116,34.03491760063635,-84.12203458519774,300.0180800583803,2.7426942175317532
1.0628264369956337,4.0694192926001,-9.548353444044723,27.94717109891933,-46.752902754453615,-10.237786626971902,24.655751694419976,34.03490935087201,-84.12202709377581,300.09942496951413,2.2316396958502094
0.632442567299653,4.1644030224984885,-9.47056083609867,26.17494256778547,-45.2988272317233,-13.80070725769152,24.670685979202386,34.03489835781181,-84.12201544131082,299.6608614032228,3.162625330310975
0.6674398442927708,4.207241626393509,-9.491440105787163,26.647883791149955,-44.53914241350742,-10.001585137627266,24.733218452460687,34.03488880949207,-84.12200794187659,300.09728301594765,2.4624846722281455
1.0559138372259291,4.237042851600291,-9.562100748045896,26.783390466034266,-45.49803029243265,-9.335625329522633,24.69652531363706,34.03487682533758,-84.12199854416494,299.4815631610762,3.0892271255357118
-0.020488379420432787,3.162467534448559,-9.06496927834707,-4.127123244785052,-2.819604264000095,-1.6645882943805044,24.750472998129545,34.034867239918874,-84.12199175275482,299.6265337113408,2.402574214738713
0.20230225999288762,3.1450024605177878,-8.725341928706365,-5.938450995475722,-3.6763881378815797,-0.6258042731274542,24.708605962635804,34.03485770965498,-84.12198460857675,300.483458341715,2.4250424855213133
0.05140035815335889,3.0984370732753685,-9.238428008353218,-4.632226317907542,-4.3348680392913135,1.028052616612034,24.865134634949964,34.03484645413278,-84.12197753804503,300.1784463431427,2.74274095472802
-0.19655208846410605,3.2904232689123285,-8.927238325417834,-4.674724513663967,-5.404427812535804,0.18357794699183977,24.875032276828588,34.0348372646597,-84.12197190035849,300.9133950872628,2.2282255644816105
-0.28187498982957476,3.20914235819697,-8.82043372872578,-3.9097699765458414,-4.760648027283147,0.771457976636048,24.73791266801765,34.034826823290366,-84.1219653808089,300.7650989212719,2.541085706484939
0.14029629848055994,3.517074254964032,-9.26861333699684,-4.284705529208836,-4.651828298275385,-0.21360331041373393,24.885595122846038,34.034817608598644,-84.12195987472,300.91305783254825,2.2225261574459503
-0.006254849435859161,3.450015075765137,-9.02396222707523,-3.9684961504232876,-3.742093843799641,1.0514606115933056,24.813156888194165,34.03480837921848,-84.12195425589275,300.0903401688531,2.234394608027087
-0.4193638984143283,3.382576374480846,-8.942330781556073,-3.7012055072668715,-3.2650041446193416,0.3793410055614258,24.682631512482327,34.034797207389424,-84.12194703534843,300.73778455081657,2.7392918983436436
0.003832244455923034,3.3470622500955804,-9.032329979693197,-3.451300831701407,-4.038530661413908,-0.538453532342455,24.691210611822058,34.03478769914438,-84.12193929803233,299.1992792338045,2.4787992464643853
-0.23632012226268936,3.3287876975445685,-8.907390989310459,-4.332779571328684,-3.7994912480918765,-0.08081664945667241,24.82745069382407,34.034777832373145,-84.12192922317219,300.2756840546335,2.793715058710933
-0.01848332536741043,2.953255379323392,-9.060522944151852,-2.636050414766995,-3.2647231944896786,0.8620966300066826,24.90885291066705,34.03476825139195,-84.12191878076608,299.7272178284563,2.7905424072780107
-0.095382023810171,3.280848258821013,-8.975486887043006,-4.916967816154825,-5.242940608182074,0.7676411039914943,24.68529351196097,34.03475888733759,-84.12190755694054,300.2977311981042,2.852774084265111
-0.35297060678368863,2.9545392455014596,-8.92143845759816,-2.464110726263051,-4.2820254899064345,0.44276495883473926,24.717762632465995,34.03475269899434,-84.1218991591916,300.14628977144326,2.01289741238287
0.09037513442883277,2.7998686469877967,-8.732477916220722,-3.6674462360976463,-4.013318153301224,0.19119386930037913,24.720264578250564,34.034744272584426,-84.1218876579691,300.1202073437252,2.749772266464068
-0.4090679581004,2.901405642840235,-8.417387592947033,-4.814319821553496,-3.268172734916834,1.5805950703555562,25.116905373652568,34.034736325488595,-84.12187629651703,300.3135113288509,2.663094111276658
-0.6156311221290933,2.907970742062461,-9.586178892362213,-15.918032200358892,5.032198140508881,-4.688472762733076,25.06315523975115,34.03473006148698,-84.1218686000796,300.14429584411596,1.9322630394384965
-0.9464942806296532,3.188815915915881,-9.397525752295909,-14.604051049390124,3.032947176394363,-4.221042564719205,25.00247051818122,34.03472054787869,-84.12185542421115,299.8172694531704,3.1302320881722756
-0.7481624518520344,3.1619031331847074,-9.672975027172168,-15.31191061487557,3.646290614615645,-3.385686629413367,24.791649025521018,34.03471249833884,-84.12184406277719,300.3988860237468,2.6774279833339794
-0.5828186959734619,2.8642898786997097,-9.833864379836486,-13.045313931036562,4.368984919290801,-2.653684277913609,24.72750460113432,34.0347041532097,-84.12183334309519,300.3523219010914,2.6344597137653776
-0.7019142213864582,3.191952599240321,-9.506069829620204,-14.244314250085974,4.240940890219135,-2.4765980402944066,24.81943649572656,34.03469628879009,-84.12182343566464,299.04752096795056,2.4573957164490974
-0.4032405489250684,3.3570397571666524,-9.692962221409353,-15.50996174182379,2.771746895533459,-4.036806494772706,24.958954561946246,34.03469048739304,-84.1218153450667,299.1951126524219,1.9163835054013287
-0.8474758939490482,3.145328058681433,-9.515604002290159,-15.0017596569296,4.849103957903833,-3.8616538388856716,24.803780653543093,34.03468441106336,-84.12180626311519,300.23889061031764,2.09076278973312
-0.7463189774555501,3.1696270780734572,-9.143728678797872,-15.55256994299229,4.330163898771447,-3.6634267852409823,24.865086688427706,34.03467841368744,-84.12179476351747,299.7652874463117,2.4337653886728456
-0.9540625669796885,3.3738845292766286,-9.235356512209187,-15.48605222911521,4.715939609632027,-4.895745271258413,24.83415645805776,34.03467297425182,-84.12178457217759,299.9452098866112,2.1713225705505033
-0.4150841659741188,3.4280599965365885,-9.429408567008878,-14.285919382596033,4.153171842504313,-4.655159500911198,25.048832347306668,34.03466536376664,-84.12177204973504,300.67556801979765,2.781559080876652
-0.7888998500957692,2.9326807485928446,-9.10527783442346,-15.243350275561736,5.323842562071127,-2.87794315847357,24.834030325354117,34.034659185471625,-84.121759874682,300.88997107547834,2.557183703013855
-0.7026771811738844,3.0087585276444884,-9.666145718877697,-16.041050490069722,2.8832076536799276,-2.4016929403648364,24.937422646994186,34.03465327631071,-84.12174694693947,301.0325958160054,2.6445072631950985
-0.7158078121468913,2.9058583952953434,-9.551739598137196,-13.924411612648962,4.176940135513125,-3.515455631951035,24.738011495385113,34.034648840720735,-84.12173571860492,299.72956016332205,2.2280415358427765
-0.6769280337801485,2.989948364101859,-9.135802439611526,-15.121509358432743,4.988727556026706,-5.702959209335155,24.78323869235074,34.03464235036966,-84.12172000007534,299.18218231459,3.145643068685696
-0.7759440053346329,3.11208789865127,-9.433225186921156,-14.287072037946684,4.765296488772639,-3.1212717221601887,24.80528018205726,34.03463820901061,-84.12170751692462,299.99515920509816,2.408501841529392
-0.5597755270226126,3.0404679672199424,-8.900864814029783,-9.499508208070653,3.639658232720315,-8.71255601010168,24.79988503939515,34.03463227202455,-84.12169212338277,300.32110219948044,3.0412810364060623
-0.6198720879478801,2.9547128626896138,-9.40638996274587,-9.210121878599193,4.360836817617356,-10.408639002377305,24.868246730016757,34.03462641236009,-84.12167702930533,299.2405630905381,2.9856075191402587
-0.3884550127056041,2.8382484793731897,-9.293882485921122,-9.535780057914499,4.242152845606114,-12.29619696578976,24.677466723320823,34.03462181609793,-84.12166273274404,299.54984957580393,2.7467546227150708
-0.7350992089256851,2.7003619672886097,-9.545876943679197,-8.18195593046433,5.21225405066143,-10.816636559048943,24.98158566029438,34.0346184031403,-84.1216527095414,300.6660112880768,1.9410043077792338
-0.484839124086559,2.627529440291726,-9.238471566055107,-8.664921081133773,3.116145155321483,-10.494598127380776,24.932575551885066,34.034613943118316,-84.12163868274052,300.5158051494718,2.6910742629254085
-0.6377432655896542,2.6365538081226267,-9.058380949424775,-7.700132133308733,2.798270829037212,-10.31039333060436,24.761833424413442,34.034609896081115,-84.1216239906958,299.71667597451324,2.773212812158304
-0.5626872313731571,2.6832455859573177,-9.545189420396744,-9.35799941729958,3.0262507381876538,-10.209158717899344,24.866414717318026,34.034605376796065,-84.12160982586056,300.3702717054327,2.7187488077594093
-0.4798379703545148,2.828062996917627,-9.295002381648668,-8.36672443582936,3.366039667808807,-11.410144002190574,24.811880299872286,34.034600785420025,-84.12159480119062,300.24996100905923,2.868366937843491
-0.5058984189213674,2.7760609345455185,-9.347061650603834,-10.11575323452097,3.499249849616997,-9.145054598619705,24.938039163017123,34.03459682838014,-84.12158271653921,300.15198030104557,2.327453293461483
-0.5266001481290972,2.8661993997067103,-9.510087577358146,-10.161663682953469,3.6196287824853823,-10.87611234254982,24.865622906528692,34.03459205421054,-84.12156648824912,299.72687413315026,3.084542837198971
-0.6501045334410818,2.5458276239696285,-9.642911646630338,-7.050828372624672,2.452426281356269,-9.869074756524162,24.861147000433704,34.034587705557605,-84.12155081563616,299.738546358642,2.960457123206747
-0.4518873701695403,2.906667477649235,-9.07257683396691,-9.49878109513172,4.9279308341196915,-11.467186624668747,24.742794513394017,34.03458402089589,-84.1215391420007,299.47397025110484,2.237520182966459
-0.3148638864447375,2.4063226111501814,-9.36679091824406,-9.764479417992737,4.047981038903462,-10.33349287275506,24.708889085313835,34.03457956719647,-84.12152710935916,300.05228329842777,2.3604988199393993
-0.5492329568066358,2.3097868783511437,-9.116666898769388,-9.850453968375515,4.423363368477765,-10.599415750384484,24.765210043394486,34.034574372595294,-84.12151313543585,300.6303894012203,2.7433041911311618
-0.8724158935001511,2.4715590143993156,-9.504577503362887,-8.90046645436644,3.1457580678557684,-10.633044960258276,24.730319407300943,34.03456934152606,-84.12149944281782,300.2597009374615,2.6828888321576656
1.5494450890919726,1.0691938600741253,-10.31145144375447,-41.536831836917756,18.62874942513363,1.7902812864952493,24.653750752701015,34.034565501769286,-84.1214878107934,299.98811566375485,2.24274505664927
1.9321452408437982,1.282130441056173,-10.657509336348319,-41.085421170699135,19.677747018115866,-0.24058041720003767,24.76192791025773,34.034560997557335,-84.12147499944251,299.8976949732843,2.4927497817918827
1.6900495605462968,1.298363146881711,-10.149020683142828,-41.662392831544395,21.50345095533223,0.13381533174476307,24.8152688031118,34.03455622718653,-84.12146086893503,300.6515416011255,2.733022308160057
1.45111363450373,1.4647703522014928,-10.285053518346643,-43.11507797946933,20.305426981223935,-0.5684070737453113,24.79007914896442,34.03455175217328,-84.12144752891147,300.1519112750562,2.5778152993871184
1.8876698976439408,1.0153066128803097,-10.201566627128882,-42.75923338773565,20.946619151384905,-1.9280170255189866,24.666208159019256,34.03454868481822,-84.12143520163623,300.0755836609437,2.3054510822907397
1.1645143916512122,1.4512849221400346,-10.330636003352566,-42.77196352859049,20.628266302504088,-2.8537437764377507,24.856151589673008,34.03454548004511,-84.12142315265564,299.82485128754723,2.266654234447645
1.7961552370049465,1.1744278688333512,-10.08472997490537,-41.17268113810901,21.130659514910526,0.9418453611138209,24.80832244391,34.034542245475194,-84.1214089635473,299.5922329237004,2.6359618775739566
1.4420026504625707,1.2170913548582853,-10.024836536100942,-41.16583265759319,19.834349872006083,-1.8416719699480715,24.817130947312396,34.0345387591643,-84.12139537269405,300.0658964750078,2.5483563318640488
1.6156715248827167,1.2983951953938084,-10.321086086978864,-43.04462226187027,21.2195795478716,-1.1491289903299284,24.634269083096175,34.034535675246026,-84.12137802511698,300.30604118642,3.177992737329024
1.8808021481437318,1.2654245950340188,-10.1621960586178,-40.89644580142846,20.151858161563684,0.8063479040846477,24.77409769167173,34.03453177703015,-84.12136410738385,299.64183163388094,2.6314875775259097
1.750713941547607,1.259324905368379,-10.211493068812137,-41.660561574356635,20.27622473693873,-0.4372681774441648,24.763636432120276,34.034527537612725,-84.12134896856485,299.1638645156741,2.862307616929897
1.7801352359743814,1.6226308701647132,-10.14739091663067,-41.437462125557985,20.171590386681185,-0.25813630982330493,24.6999452487124,34.03452390025626,-84.1213341746873,300.626167902132,2.7640516660565453
1.5439828270884433,1.0249385250833387,-10.40661008059386,-41.595866104329346,19.4339636087941,-0.0010603686287101177,24.836432195574904,34.03451820513774,-84.1213191118375,300.5611550189938,2.9656078507829613
1.6148600186483988,1.6278536618318196,-10.317538140941265,-41.74878747936363,22.717251093653875,0.7755277649364527,24.916288193331855,34.03451255398274,-84.121306779798,299.19188678636,2.524145781665765
1.7010395185299017,1.2403583587639602,-9.973902130814878,-42.513183745864644,19.029332089425164,-0.4271000053925407,24.741042584733474,34.03450742883833,-84.12129583924336,300.3504233273025,2.2511099527863045
-1.2090327641463352,3.204573218254745,-9.302713741760881,-9.336534850567608,7.153915206164816,-1.2255810080835952,24.799632497797717,34.03450120557909,-84.12128032172728,300.19885946175305,3.0878797659384865
-0.914881404492446,2.6212647398861804,-9.695183765655255,-6.988047090500896,6.800582203655348,-0.7708590932746734,24.78270957637927,34.03449543988515,-84.12126650825294,300.2625985307848,2.7703997024401343
-0.9123199095462224,2.9949706529729903,-9.301236791169481,-7.332737651787321,6.55646463133282,-0.6689010469589671,24.892420119682022,34.03449096913331,-84.12125267667867,300.06834065901774,2.6593007537219138
-0.9090839190649747,2.922547246214801,-9.658678491016401,-8.200380836045618,6.289751021885786,-1.6797113166088544,25.04648134188607,34.034486142213495,-84.12123806906297,298.97340526468076,2.816857728209492
-0.7738584498015859,3.1015343919243747,-9.346923778423694,-6.689652638250645,5.305055295055274,-1.0055405134844961,24.840494311838132,34.03448229036423,-84.12122326276167,300.7395135376522,2.7797186477874614
-0.490416922958552,3.1582630212028135,-9.221062557219279,-7.630661681714284,5.2683620310265065,-1.3996681975377103,24.694729493250257,34.0344798180533,-84.12121131841485,299.98394120375656,2.2052011112505743
-0.5304371197563216,2.8530504775737584,-9.39193314396357,-6.1413038388682235,5.866365728367475,-3.230954375393696,24.801688418991098,34.034476990802936,-84.12119480253287,299.4014459430682,3.0207864752141558
-1.077458189987396,2.845026008674402,-9.17653187833687,-7.119727385499395,6.02160192861011,0.2618104222748543,24.89205572110805,34.03447491094033,-84.12118156160155,300.2164625349827,2.4139489156664165
-0.725025234787464,3.145876404519794,-9.283449554334258,-7.875902474368704,6.2198114399040465,-0.5794168741401428,25.057592749657466,34.034472150561314,-84.12116589301289,299.9186250681886,2.8692808879963407
-0.6166756789108618,3.273864644024804,-9.085295484449993,-7.666626212667964,6.968212701522554,-2.3988197184969433,25.119670251194396,34.03446981698302,-84.12115248273913,300.1276798776745,2.4544378659359354
-0.43920771804963127,2.919401768372495,-9.10024352526092,-7.836265395895763,7.700151035298568,0.019658531171023785,24.787916589309646,34.03446833214164,-84.1211383962292,300.8108570814102,2.543509083227979
-0.5442134427020394,3.0255913507029244,-8.978286381669372,-6.899843610385485,5.798733656027893,0.4813597683966865,24.90072785535266,34.03446723565053,-84.12112727491923,300.1581520093346,2.0061010358001705
-0.23537797023551577,2.6941930054043253,-9.074338417293117,-4.27491476126226,6.60151903535641,-1.5898484789962777,24.83041894267184,34.03446676551079,-84.1211163554045,300.53395552641115,1.9585444850090925
-0.4798488083683534,3.0059298068850193,-9.276677058066465,-7.736748205903626,5.310494589991768,-0.5278390091634575,24.875578389593596,34.034466075652034,-84.1211022805688,299.71818240482503,2.525494159126138
-0.8079171580940856,2.9117119963845983,-9.090102242380782,-8.605408203297891,7.073108955227695,-1.664608360852376,24.76902796521478,34.03446615325888,-84.12109075492876,300.70836843959205,2.0645439816084887
0.1449294049001819,4.187436243440021,-7.99357272153034,-16.1118830938731,2.472469202680662,4.327775919274569,24.986748788410758,34.034466751824965,-84.12107921292016,299.9258099181986,2.0714520127723643
0.09502309462723343,4.276014734525078,-8.131251096523167,-13.44248359384787,3.4632287381947857,4.022494110155343,24.95355320728957,34.03446806879812,-84.12106519747014,299.5799715089025,2.526538319674915
0.326856841204792,3.779026422396137,-7.719407222401515,-16.50852147953313,1.6264415065132654,3.305265534740901,24.87735774905618,34.034468385235655,-84.12105048489263,300.22383927445236,2.636208319987141
0.44515028602775714,3.7996686965741477,-8.555012575879152,-16.40659952641648,1.8981429406124595,3.2488525893328095,24.890984476225917,34.03446887334407,-84.12103836317506,300.834707675805,2.1738070627348827
0.013253047276648472,3.878903005016733,-8.25198664874548,-16.223002756380072,2.4264328058232882,6.373376084234957,24.96445752062339,34.03446941604502,-84.12102398669639,299.33922905285425,2.577789067397053
0.14686557671468292,4.389431200146598,-8.27498251146459,-15.363180108105565,4.3014604584009515,2.8918639450911927,25.102818776142193,34.03446982089093,-84.12100573915211,300.0146225456086,3.269676209791941
-0.2766333274303967,4.08142240092961,-8.370205222387453,-13.872398616037316,1.4370810200276973,5.243396395592511,24.9303331671686,34.034469768840616,-84.12099292299463,299.5748738205011,2.2956611403497162
-0.10513247313639777,3.7509958941287147,-8.247375757604777,-16.116348915288288,4.844376240160168,4.943966983449367,24.912278531124226,34.03446914952397,-84.12097905315089,300.6935705862688,2.4879739178524836
0.24227849939074242,3.7826389470689126,-8.174898594232355,-15.829885247717245,1.727999206044367,3.2612025028274516,24.758226634374076,34.03446933867697,-84.12096997540505,299.65331635754995,1.6265222105150654
0.09164257425017411,3.940224490799214,-8.32506743862139,-16.235770566190073,3.3790721453030788,3.263811869770734,24.7534229074388,34.03446955574866,-84.12095543171033,300.6720395753978,2.6054930105000893
-0.16312614021012645,3.7509492681614285,-8.196112233068092,-16.17562769641858,3.4428598728426394,3.5464250528449943,24.801457049594905,34.03446942055257,-84.12094245423317,300.7680553078554,2.3247128718403154
-0.02147997564871358,3.6774737535752484,-8.298941158592289,-15.020405851995811,2.08519665641845,4.82634903972061,24.878765311901766,34.03446923653511,-84.12092531049154,300.6045992337086,3.0710492014471056
0.23758442096247206,4.151220582894436,-7.976895202406572,-15.231183942993225,1.133436264460912,1.9270103165816534,24.764777361067388,34.03447067732157,-84.12091035566253,300.70851713336026,2.696754678030079
-0.025930407765388436,4.0390971385610195,-8.622252534581126,-15.588021250067333,2.543431777151636,4.987551643902944,24.737651050147957,34.03447196176394,-84.12089481490726,299.91613542824535,2.797474437197894
0.06709831152506394,4.331062043207356,-8.217438759352573,-18.452404661028016,2.2304250311992964,4.7352774706164,24.93614292729758,34.03447370378109,-84.12087952669326,301.00079616092154,2.764193852466399
-0.614834152595205,1.9784267516961558,-7.379081334082616,23.741312821539783,0.3946253163265633,-33.23772983610843,24.970808358576043,34.0344741715774,-84.12086419665334,300.3925957644401,2.747781725711247
-0.9458469650996559,2.242827719514118,-7.864073257702632,24.41670004601628,-0.46928562230229875,-35.390328720930036,24.78908509945461,34.03447482053374,-84.1208492997377,300.21344884895063,2.672023687125615
-0.741562197690552,2.219974289870499,-7.457161512122939,25.121464238525434,0.5288448395692363,-35.650473098369716,25.023475664769936,34.03447515625048,-84.12083547383185,299.68629203659646,2.4775626919007236
-0.7145921538414499,2.3438829238723926,-7.757630196316255,23.326951204172108,-1.7580659077362557,-36.432974690968805,25.048787711460147,34.034475985308724,-84.120825327717,299.73873571561427,1.8261879827131542
-0.9502753167387701,1.906104239814428,-8.201867170042389,23.282350441747365,-0.5920324176468665,-35.26115152033179,24.981218015679925,34.03447831219805,-84.12081029198981,300.3206358512113,2.7397627849049777
-0.763286582392209,2.4840527850359835,-7.734633272577058,24.079704059594956,-1.2760772947372159,-36.012639068297716,24.795832554084203,34.03447932024942,-84.12079954281685,299.9997666093986,1.9376838098695959
-0.8263200478281354,2.5132270235023797,-7.652890050533005,24.29661956907308,-0.2563540121975838,-37.20095108923091,24.903951853479523,34.03448089139507,-84.12078733296788,300.1596484092091,2.213239988268573
-1.2119655548010322,2.2712361803476697,-7.991731439591568,23.697306559347588,-1.3806328083697428,-34.17207548200495,24.85148279636599,34.03448188805436,-84.12077324000212,300.27542783892306,2.533510811448085
-0.9399597744352226,2.2007179468748856,-7.880816349655301,23.89659688863864,-0.8597454129711256,-35.20611042513692,24.902230944966693,34.0344826311018,-84.1207575477698,300.3855828642864,2.8153811976985255
-0.6623605135970684,2.7123875377796196,-7.210453256474307,23.09441229997669,-0.19611339107518444,-34.60058765135591,24.984799175834176,34.034483392182025,-84.12074551524618,300.56496896636287,2.1615374482234935
-0.7365887101082818,2.0231848608407224,-7.753872963582404,21.215031615096965,0.6120393877583078,-34.88960886418741,24.74896884369319,34.034483806183964,-84.12073241019534,299.55824666207593,2.349084864772296
-0.7870245452852764,2.288337682816954,-7.784898552484153,25.063771143281034,-1.033436836407325,-35.179466878902076,24.896900092452658,34.03448388329433,-84.12071524459834,299.23959204302525,3.0747510128999394
-1.0393901140923045,1.87391639762662,-7.456934716974416,25.9192010980486,-0.6728849663845309,-34.58423762709533,24.94404610599302,34.03448397576412,-84.1207010919542,299.92215164633654,2.5351037924706343
-1.2504990695665312,2.50801718141673,-7.900414526598671,25.04257567582772,-1.0496800096806396,-36.485707791880124,24.95228091700555,34.034484071970226,-84.12068869092272,300.195469676601,2.2213730531551548
-0.44244106130717054,1.974002450191757,-7.536890756720389,23.7127523314215,-1.6000058428137223,-33.54641663115671,24.900005331130693,34.03448390234142,-84.12067517757676,299.73758365623974,2.420791424394401
-0.34817669662460443,3.6583898981762424,-9.072308477310212,-0.09267248630445807,-6.677341673226067,8.190394916348922,24.776311441499516,34.03448412801541,-84.12066086912026,300.00676774332584,2.5633982874679346
-0.4870893038835091,3.283539481261406,-9.375595109094087,-2.0691441273251874,-5.529434189991366,10.616151123926864,24.98473952715777,34.034484802548704,-84.12064690916222,299.1113631478389,2.504757923716312
-0.525704996801883,3.1455849135574034,-9.380442372250828,-0.2830197101020735,-4.125781867769167,9.389957431299184,24.833392313069787,34.03448601978105,-84.12063107448466,300.4578180280725,2.848487783924782
-0.1383023125851474,3.6376575546240493,-9.425565453166774,0.2543891057135361,-6.8853043489961,9.28735066957111,24.88679751910252,34.03448797896062,-84.1206172824437,300.72442610598625,2.5064651997234475
-0.26477203112368325,3.468634697102586,-8.810008951356544,-0.1569399660071078,-4.506016969369686,8.726342809754014,24.945366893917708,34.03449000731406,-84.12060324657222,300.5850131482338,2.552048968982696
-0.9592805917826919,3.689029219539771,-9.477074035234228,0.5246989253094271,-5.720906861551901,9.207059193507071,24.903921075963382,34.03449132457981,-84.12058909191909,299.83545066717176,2.55132156955939
-0.4265030883492337,3.671587527811603,-9.20728739926047,0.5101704862977219,-4.0074739999174085,10.965969329081219,24.9246800546097,34.03449381485963,-84.12057715112827,299.7188760793291,2.2055275837464734
-0.33199376982136775,3.9750080600261137,-9.073645436614441,-1.7498665360359673,-5.770768246722814,10.281481861993424,24.96249192381112,34.03449698633198,-84.12056327197001,300.2017051056299,2.578816624629587
-0.7561693248409442,3.271683949890578,-9.056562665035932,0.49824003743018414,-6.493018446824028,9.927182706337359,24.967053364277817,34.034499053242065,-84.1205534887846,300.3880460741578,1.8084182535657047
-0.3589193734585123,3.168799680857279,-9.407096661573917,0.3303104909901714,-5.183547771276839,12.138829388304782,24.895629657615803,34.034502353598896,-84.12053783145424,299.9182368131627,2.8938466847707023
-0.36138231693650735,3.5954336422853066,-9.180673109568007,-0.6049201462319822,-5.767570943267376,9.80011367236292,24.93421924410793,34.03450520219362,-84.1205241889746,299.21366831116353,2.5200189610759285
-0.4424488989782019,3.6465070203823875,-9.1919812180289,1.9743528534888148,-4.0670577853235015,8.79960339634587,24.937671820112374,34.03450837842635,-84.12051154999496,301.09568488013656,2.3657028573476846
-0.5328998315014072,3.7901742379890133,-9.364692164095851,0.2712299434400201,-6.24012583704367,9.477662065317386,24.925822166391626,34.0345109350667,-84.12049837617937,299.7740936045104,2.4235390186881327
-0.45186964401118757,3.5140708653575357,-9.621046779262496,-1.0921553804173403,-7.2404590749186015,8.012525149603198,25.057172475720872,34.0345147127965,-84.1204836965825,299.492602850973,2.753279184637184
-0.5947302650658739,3.748714101259035,-9.232732289988466,0.7883373711854024,-5.823385900081338,10.298637570487264,24.866293187054488,34.034518030708085,-84.12047119623182,300.18479928676646,2.3511103977097085
1.1775331639461806,3.672599555456525,-8.59920413132779,-32.346363744293235,13.301474599199029,0.7838100615945429,24.908308355948577,34.03452098676965,-84.12045752542981,300.44197387516186,2.530702772685173
1.1729025576608647,3.3926344051613775,-8.889760016731143,-30.423992213400492,15.764224259879185,-1.056677398943829,24.956082187312397,34.03452454151516,-84.12044622985067,299.90755301930966,2.164245071479806
1.4127414940743286,3.3189126576182195,-9.07096247839982,-31.553002216766497,12.178137153727356,-0.3233697975688852,25.090724911082994,34.034526856273295,-84.12043630109252,300.37587922738106,1.847478466099386
0.7316319782182261,3.3628038233363733,-8.860507688387298,-29.91838113804202,14.349631508091477,-0.5865278945949451,24.76057249707511,34.03452951192659,-84.12042363825293,300.24968885210205,2.3396750731892606
1.1188877175771579,3.4519460384721845,-8.727100057181902,-32.10417562033187,13.771589725950305,-0.7801251873328485,24.89792181070463,34.03453203554332,-84.12040952807621,300.20116774161465,2.5856087711187397
1.217618239431165,3.357728180793745,-8.851168446091918,-31.555008429598477,14.086657537630725,0.3721292689558289,24.827383296897505,34.03453436385023,-84.12039725513661,300.2179178469824,2.255198875304644
1.0482191815947262,3.4022824969149217,-8.649497238467768,-32.88496388066005,12.30225273223449,0.514713744147286,24.866998728841725,34.03453589533841,-84.12038643139677,300.17448033215487,1.9668065135778614
1.167538098541154,3.6719058035129764,-8.90908386722465,-31.50684899740022,13.071098311033916,0.824985297113915,24.81541476890655,34.03453712577862,-84.12037655757382,299.2403209698724,1.7884852063709205
1.2135411225828971,3.347695578661399,-9.091627188785553,-29.977960737170577,12.856546822545706,1.266781396267409,24.977432834496344,34.034538526306136,-84.12036357706364,300.50053528821746,2.3446943768667294
1.1001163692621145,3.5752663060722227,-9.00395939657679,-31.80878597032544,11.955041976261708,0.4687436750314621,24.868844429126725,34.03453929257267,-84.12035092500834,300.7774088480545,2.272281914741421
0.9059625182108725,3.073213767903662,-8.843033782130416,-30.279263941348514,13.012367240638818,-0.18640261431078833,24.743030791890646,34.034539421067244,-84.12033996460077,297.9477749983249,1.9634259839774526
1.0955772177357563,3.372184132633524,-8.84792499009358,-30.59977376528327,13.347421677412251,-0.8811787090358733,24.824015059599137,34.0345394060085,-84.12032686550039,299.4211314350177,2.3463147143195173
0.9899779604093303,3.4745958994140556,-8.751088808879892,-31.64841747844576,12.070144079188921,-0.8607924034499205,24.77949049458303,34.034537917434086,-84.1203154722539,299.748294769826,2.0659677309688713
1.0363280983755572,3.4388833973953576,-8.97922762549481,-30.532191372905483,13.017919448446687,-0.26296957272131805,24.7878364356534,34.034535286637464,-84.12029811705098,299.8556803686931,3.16024549881784
1.0203330997847264,3.4677716765046114,-9.012057876081338,-30.91915680666091,13.318443656705655,-0.06404385458232506,24.798613218781917,34.03453380814187,-84.12028653646857,299.3229120274938,2.0987877268256416
0.6035391473538636,6.31114535094834,-7.596695933806453,43.53222465220561,31.36401624400427,-16.13779923483434,24.92308362546674,34.03453228109329,-84.12027139203902,300.8876595029351,2.732678857858925
0.8291830851541568,6.240076677405927,-7.4619941951921716,43.381673887157845,29.636440809870194,-17.818618778247586,24.994498013871862,34.03453131661778,-84.12025639981381,299.3360185605473,2.6934888992737474
0.5414824333718322,6.169037789194443,-7.383418617797857,43.526387376770046,28.49187599348402,-14.97871026405608,25.12093676088933,34.03452990525114,-84.12024056496897,300.50031054610804,2.852697774181411
-0.013267412089771502,5.929958636968386,-7.835357611962831,43.15308831993108,30.735587708896464,-15.68810082301445,24.998865008032293,34.034528381491945,-84.12022740029346,299.16443365866627,2.380948190566923
0.5091063393013103,6.274810015940269,-7.6166690236850885,44.161034900756825,30.845469337238214,-16.881249474566637,24.900353355749857,34.03452681446703,-84.12021473503214,300.4518798869091,2.2937487393319627
0.5811555515164069,5.96929777935392,-7.952304701081021,43.15522256275715,29.985172416639564,-17.574316867140404,24.980558001273426,34.03452482332415,-84.1202028004598,300.14667401644846,2.1806149348174224
0.07510661992928458,5.885037976383359,-7.583262597399862,43.836504453413205,30.836488639306847,-17.23124341598899,24.981205999854502,34.03452173385348,-84.12018835180704,300.36462069163304,2.672807773574495
0.45560881169387263,6.477745775047807,-8.04593662910601,45.50555305385777,31.16595998492297,-19.10500716410777,24.894537170140463,34.034520414765794,-84.12017445674716,300.15312836953757,2.505162860666317
0.5318412071425678,5.822290778104798,-7.794580310317711,44.194901362454054,30.47694233475872,-17.185525157842,24.78853598761378,34.03451934870336,-84.12016091433655,300.62520962933166,2.436638516148244
0.30342261922377356,6.06624071085214,-7.452525071000477,43.73116289328166,29.62138442464718,-19.30699431815273,24.878990929533305,34.03451783492924,-84.12014610084132,300.96059262663204,2.6734932051741955
0.0015726417782602753,6.188128949648262,-7.485724820341114,45.246155985513724,29.236791338521073,-16.37463245038592,24.940720696622236,34.034515778745565,-84.12013332389249,300.131110853202,2.3313633514030494
0.6769490731335124,5.759765152743343,-7.488527787078037,43.46582331909926,29.164085454928763,-15.906807434544444,24.807833014965176,34.034513702906146,-84.12011859225625,300.29479158079045,2.676607991138818
0.5906467516070147,6.228728134738964,-7.975094689051282,43.95165276098388,30.535172086533866,-16.95169145397927,24.935655264443067,34.03451150403067,-84.12010747568515,299.3204266740002,2.047138257969372
0.43160291003212414,6.389787468906394,-7.732939350171268,42.539355465481385,27.708348221940668,-17.63103537700091,24.80647100688292,34.03450919940202,-84.12009454452036,299.8441584523546,2.3691924118200016
0.25231548195578246,5.951945645608915,-7.790372765821016,44.99048388996858,30.114985165974723,-16.22122320862717,25.014473357280536,34.034506039491156,-84.12007959403834,300.6097626541423,2.763660051777783
-0.6053796196444864,3.112373431229397,-9.50465106814114,-13.485102338117489,14.128748046213744,2.9349380650911066,24.93402198807597,34.03450327595093,-84.12006626233315,299.8715239607979,2.4615518240388843
0.017639290300805133,2.8942639959709253,-10.10106030393982,-11.443721258721375,13.866259627501163,4.198087992500696,25.029850771360575,34.03449964952356,-84.12005041519141,299.2544530847362,2.9447797900814434
-0.013993334416771336,3.3848656338769967,-10.05442461091358,-12.308578559947772,16.66417173745551,1.5107907616502017,24.890935841384206,34.03449687287347,-84.1200377555298,300.0921558224676,2.345678753300977
-0.2231554549378072,3.420216775305275,-10.078785500730318,-13.27747041906188,13.635317632648333,4.246735008260908,24.941269170805576,34.03449367488976,-84.12002500904651,299.5621937136302,2.385495066851555
0.06010613698345468,3.2887948028398792,-10.153771649608267,-12.521350665407702,15.585215580429656,3.9733147426952127,24.96307696629093,34.03449024402878,-84.12001074389059,300.71787060072717,2.660611658573723
-0.43678324830958504,3.175856657416332,-9.974989365242283,-11.73099618633219,14.765793430411573,4.718650786595217,24.937457435448938,34.03448683549147,-84.11999783547678,300.6293255764643,2.426697773808836
0.035009358750657305,3.1987075514663212,-10.424102436262647,-12.905279390583596,13.422814387875663,4.044908378686829,24.96362756710572,34.03448351157512,-84.11998254037782,300.298848444395,2.832298980744302
-0.13173589797554913,3.585364945291281,-9.72564200968006,-12.643286198708166,15.14126920241908,3.793154914165262,24.905531718303475,34.034480791436096,-84.11996632495149,299.37271832506224,2.9634212988237874
0.019815015068597425,3.334736873473095,-9.986950657434106,-12.37186733711058,14.931018513843886,1.4332948257441724,24.88912521263391,34.03447802700007,-84.11995251783117,299.2177110954198,2.5442931029946942
-0.08172125281848983,3.5092133388213105,-9.971202263470987,-11.348229330780123,13.65131425427124,2.6949287216201196,24.975484149594113,34.03447447064213,-84.1199391588729,300.4793672883617,2.51329785580647
-0.1153115239278282,2.80074519935767,-9.823119959227151,-11.528650776051185,15.971089147484687,3.8537657904499536,24.86680428685242,34.03447066965581,-84.11992435310454,299.32030277764744,2.7763548387813253
0.10246084302488398,3.2509012268833453,-9.514364388613217,-11.479011151900746,14.801200036383442,2.5478758503024403,24.864710134159125,34.034466850385726,-84.11991074606176,300.260745727499,2.573305159780179
-0.3203569705432133,3.072776386677389,-9.31411173914508,-11.219773408071747,13.875379229012578,3.2100958625605136,24.946733504420433,34.03446361981263,-84.11989478678704,299.43603582067556,2.942677603934553
-0.22960601789639287,2.927365758407529,-9.88792278505007,-12.175049173563723,14.559274530372257,2.6935919371763886,24.831440337034593,34.034461333796145,-84.11988225381013,299.8504153284389,2.2986452749858777
-0.3620433618097069,3.6524412516060583,-9.813962162361506,-12.36441003030669,11.82529914393277,2.8621746958590464,24.80237220098289,34.0344589007464,-84.11986981689152,299.40561980020243,2.2889366636400643
0.5617304040347711,4.156953746180455,-9.196619213177765,32.678067840483365,-22.241656649179824,-11.533029800272939,24.85409736853681,34.03445495302512,-84.11985285144364,299.7159184795732,3.1563805810732433
0.643982718021082,3.933405626283849,-9.681380706606388,34.07526847962169,-22.42060349727958,-11.883215012543506,24.925209848155983,34.03445072175906,-84.11983625439869,300.11483349521393,3.110366769652068
0.6425688641072674,4.15899243006687,-8.96313338572756,33.81345158520047,-21.7547175918645,-12.143179638344025,24.807139953051074,34.03444770391566,-84.11982440581706,299.5887904400718,2.220301064223472
0.5595259165314458,4.085610402252027,-9.620246626425176,34.50303920797035,-21.51287345844662,-12.649918632759432,24.816286544073865,34.03444414796061,-84.11981185306252,300.2762936687676,2.37619357762736
0.43500937311961263,3.8280878720675324,-9.040619108033585,33.48808521514816,-21.012971125564995,-10.79671898229374,24.819067818390202,34.03444254538449,-84.11979988848998,299.57254697428476,2.1709112329254983
0.4343019975957147,4.287882908224569,-9.404369985372446,32.70002119354606,-22.82401425102043,-10.429169931170044,24.98341633932538,34.03444013862604,-84.11978300398944,300.06945097299587,3.068771094316106
0.5296280565140563,4.146900709254614,-8.953060629251034,33.85300089450042,-21.574349117460205,-11.435869251248477,24.70818647465027,34.03443852032351,-84.11977094970554,300.1098029340051,2.187317108951483
0.4916859325406556,4.082623037883124,-9.226467430140271,36.353654297889264,-22.04389673624854,-12.875992726118966,24.908619928000963,34.03443650995882,-84.11975821536824,299.8415858431746,2.3219995952965324
0.6191137338595558,4.178474753107372,-9.332988518771753,34.06390067531388,-23.595179845540375,-11.512344079343118,24.824602996728515,34.034434828812444,-84.11974392199348,300.2731011238283,2.585892224559901
0.2463752634036472,3.989985258297195,-9.078325627706876,31.52108648381451,-22.464464989222876,-12.034352527073246,24.863379279658556,34.03443321633085,-84.11973188975719,300.1879134001793,2.183217772991823
0.6151447314912826,3.9606398490155397,-9.367003611178399,33.37735604476524,-21.59384585696883,-12.576569550236616,24.734526207520904,34.03443359919184,-84.11971719934574,300.97203901173674,2.6326525294614496
0.45634727151398313,3.9939945955456033,-9.2054804571317,33.158874254943015,-22.051417113471928,-11.949757736802209,24.88910069093643,34.03443416031096,-84.1197016316122,300.23149781301765,2.7911341275201953
0.7431818980402385,3.9786634634766336,-9.164336875547958,32.188324479506036,-22.282121305967156,-12.569713473547546,24.836575389592625,34.03443460636891,-84.11968755874153,299.28318962724785,2.5225805826410577
0.6920967471828978,4.243308236436733,-9.223809045877942,33.66279554458835,-22.059805548267775,-13.705250762175378,24.74137345447273,34.03443455446246,-84.11967765847591,300.37303480004937,1.773374464938941
0.18567149808051747,3.961798848746543,-9.40982416722657,33.73507547698531,-24.24646906746255,-12.84084544610767,24.57199020676977,34.034435007817535,-84.11966152197701,299.2081331744272,2.892035806879619
0.471242578845796,4.242061629673246,-8.096208999321153,4.066624657239838,0.26281692736145296,-6.965302725349558,24.713336294811064,34.03443505100752,-84.1196477743434,300.6930313547323,2.4624985304317577
0.5056192267333401,4.0466717590998655,-8.576841993557892,1.136925217554126,-2.385941611278956,-6.368208468677992,24.998652964042147,34.03443525927621,-84.11963756810474,299.655557631434,1.8286991223873894
0.5717741521195616,4.1607147178498565,-8.06583719172056,-0.7404377239557753,0.3745002880353613,-6.1985041951375495,24.833336917758817,34.03443569723009,-84.11962430915825,299.90075499757376,2.3768328166839305
0.8968464712190345,4.046528363663877,-8.617826705868122,2.4464797896516544,1.1507249193054494,-8.700836738269384,24.969060086391256,34.034436344371336,-84.11961107294034,299.73597484451915,2.374998504903826
0.6642622317757645,4.1580068121550084,-8.284389431103445,0.8984376864760182,0.1632810387373434,-7.718284653440054,24.811590992704133,34.03443705125821,-84.11960005964015,300.2852179178062,1.9786142150119324
0.6928659908040682,4.1164569632228325,-8.125414643657138,1.6300622617086502,0.7619353342326274,-7.185573455446207,24.863284913882545,34.03443757389658,-84.11958961047938,299.93098853109376,1.8750632099481601
0.8892289441659331,4.070369945577655,-8.108428924803523,0.859928946613943,-0.6549853816458031,-6.112608313177976,24.810833144156295,34.03443914395521,-84.11957368850818,300.5576599809171,2.8720686834406073
0.6378765690990622,4.290510487368839,-8.484588243329174,1.3544848602711617,0.3748457926128039,-6.353121542945175,24.962073338547118,34.03444096806884,-84.11956047550237,301.0703567491045,2.3993346072642354
0.8632741882794928,4.091907790117627,-8.066673834088428,1.7386447415007011,0.23050693229540414,-7.572632157689404,24.99196356831293,34.034443388705775,-84.11954329010118,299.8533365811921,3.122403157524935
0.7536050483529128,4.367584959959533,-8.382381068210828,2.7516494048190676,0.4459569628096203,-6.866910136218889,24.832258768425774,34.03444503810313,-84.11952909068746,298.8778076570431,2.5682681849106253
0.23011441011526823,4.388995250235453,-8.239538263045269,0.688757480421838,3.620577830767604,-7.535711689092836,24.961657604011442,34.03444664019122,-84.11951484342582,299.98689625812375,2.575361094678505
0.5946159646661368,4.221041593160668,-8.322103851649512,1.144061252932509,-0.42725318364212195,-8.060382978197097,24.926535460224773,34.03444718880034,-84.1195017803415,300.26177153051225,2.342866572661162
1.0563664253206277,3.8301015058475847,-8.670630848800968,2.263513350073879,0.1383692303687617,-6.228777809474491,24.797344484781163,34.03444705110512,-84.11948917144866,300.50936292031923,2.2587049680061573
1.0364933539771668,3.937887297960354,-8.189436515651872,1.3817495796643395,-0.5622218222943698,-6.591478821554478,24.808795532806734,34.03444604694146,-84.11947913495317,300.2215891459142,1.8107951002029083
0.4529456614686366,4.25462483962927,-8.600830804879351,0.5780094040380138,-0.34872784946834545,-7.322945360525129,24.802386857799355,34.03444506164311,-84.11946811513525,299.93047269489665,1.9853289972367987
0.9495573316229255,3.4063596361235398,-8.120316474214976,-1.5401633122371576,6.281791589045594,-6.651688359885764,24.98722410258792,34.03444383204102,-84.11945702988547,300.60490396614574,2.003301530287679
0.7549854708712073,3.7706932199569265,-8.37043563095174,-1.5714209311298957,5.748342946214054,-7.058907376146415,24.842430306703957,34.034442322527326,-84.11944284681984,300.3497804249714,2.5613414862219672
0.4486153408463315,3.8387607092443186,-8.597122643036567,-1.604309958409202,6.434484099634545,-7.303485765828363,24.967416974674002,34.034441105590666,-84.11942853982532,299.87848676277736,2.5761373129796747
1.0486922217970254,4.120421330098404,-8.541351850175541,-1.2412610996247373,7.293697665486737,-6.353454481176307,24.893428448615726,34.03444014419771,-84.1194156499459,299.3773879817622,2.3181718818908656
0.9122241533151745,3.962226249007584,-8.242772546688528,-1.3720627623095185,8.35347295615121,-7.54448495093339,25.03016754650553,34.034438476908186,-84.11940208752328,299.7912058809308,2.4558904583006367
1.0329060786096438,3.925293452347927,-8.23344891710103,-0.5389232944698168,5.244858672555359,-7.393433652605441,24.638889084445562,34.03443606178004,-84.11938740863847,300.14231343475154,2.680606954029557
1.137502861474554,3.6007461124154623,-8.445062341155495,-2.6524662995683768,6.330720810015964,-8.865098902767429,24.741146353604208,34.03443397108222,-84.11937244069122,299.21534498041285,2.7188807903677494
0.4702284865527337,3.851429075277583,-8.336861116864641,-2.211419946506712,5.912562723101678,-8.34699531274391,24.841334630450888,34.0344331689536,-84.119358476743,299.80205317194685,2.5072289637736875
0.9751775231707275,3.937330738683556,-7.807011103022078,-1.3939344901025372,7.1988596596011245,-8.80258143517353,24.70411265997782,34.03443283117281,-84.11934465406529,300.0755239084647,2.476999039419508
0.7491681942414631,4.1346069183740966,-8.557799795132933,-1.4458983947239326,8.0396171900666,-9.948712326434265,24.897716300783454,34.034432137821064,-84.11932791966204,300.6654235499225,3.0012161898529492
0.6707350487689697,3.680985800320418,-8.353748056057084,-0.35122279358272324,6.52592463769883,-7.947352571899048,24.863335991489226,34.03443199040535,-84.11931137227585,300.1377984515723,2.964144841787332
1.008143746107525,3.5726621787312167,-8.20365899453016,-1.1060459565967893,4.356083153560423,-9.446723937701089,24.815147185069044,34.03443195058861,-84.11929595619671,300.1320301799327,2.76134688043499
0.9308878502471348,3.847088192223901,-8.398812274625968,-1.4261896640689513,6.233230837241242,-6.884672278755062,24.924905422916904,34.03443208285876,-84.11928238035745,300.0467383055934,2.4318771196027176
0.7375533826981449,3.7173395574207833,-8.639813706103165,-4.899083395207262,6.96254841175593,-8.470536719321034,24.701828341169787,34.034431440353906,-84.11927064921805,300.3653165396476,2.1058699163089556
0.9251810734907264,3.877365996816192,-8.230443210493615,-1.5601615759266214,6.770378352959039,-8.971452731265797,24.683972865625275,34.034430138359525,-84.11925652983876,299.3874338111405,2.544677450945827
-0.24736322252383727,4.480856219701643,-8.282816856446027,-3.31675650972873,0.4026598577979482,-6.840463838760928,24.903494034955585,34.034428715545246,-84.11924461701913,299.394531439456,2.155876124352657
0.21839265051445444,4.053110475649956,-8.61761930767144,-1.6551796345767305,0.48460013949546155,-7.675841251242978,24.893270567568912,34.03442650387168,-84.11922809404695,299.7807245878197,2.9979596576044703
0.195662488452353,4.27098179737726,-8.621007509429345,-4.292103053314125,-0.5518741837642224,-7.326744853183146,24.922794144230338,34.03442398698149,-84.11921068672447,299.1522278385614,3.1651087310177135
0.2697668942407578,4.5397282471868845,-8.67484416513239,-3.7256134573513733,0.9934857939855828,-7.356483000113626,24.842398460633937,34.03442226295727,-84.11919751836845,300.0703141175986,2.3879749986951118
0.2344110032332205,4.448654722249059,-8.247151808013097,-4.093818993207588,0.2952113979738629,-8.199978226588458,24.836672022154858,34.03442048580658,-84.11918353519347,299.16936446954725,2.533955440763916
-0.012096934165548467,4.676075885675606,-8.216114801915468,-2.8686193550449897,0.7780788594598746,-6.183354017755047,24.82955622436526,34.03441822099798,-84.11916592612566,300.3217413074028,3.191904656182275
-0.11172805210789369,4.298267058937407,-8.729059877349718,-3.9164959016261,1.3984333302851686,-7.570793783628968,24.905539363644834,34.034416059534855,-84.11914835222242,299.78511075614034,3.1823247258904357
0.3664259396373373,4.305711735936779,-8.692654701541056,-3.876870633206577,0.9190000334116417,-5.292044473379411,24.899533145903263,34.03441471390346,-84.11913395607965,299.9111947985446,2.594993810740306
0.5202206376394954,4.537087561283049,-8.431513897049587,-2.2459211275728754,-1.1980707460251632,-6.86391605916286,24.826670383778623,34.0344126475184,-84.11911891833425,299.50122082517555,2.730346053458213
-0.17290294489455552,4.4802723815845455,-8.657368056042793,-3.2837597398262055,0.49592100861115257,-5.054978397692813,25.048927655331195,34.03441061701853,-84.11910508607636,300.1908555857628,2.516210710535024
0.35839789432754954,4.41833423656922,-8.450917639970521,-2.936512514465157,-0.49031728533174024,-6.593021682589567,25.027512672423285,34.03440816711539,-84.11909067933871,299.49124559628035,2.6343116976910057
0.2264291731623129,4.682446623942456,-8.479814037220912,-2.719082229839013,-0.6275062970849532,-5.514991584467617,24.89131035911569,34.03440602619211,-84.11907652691296,299.72351331562004,2.576878728590757
0.23493411824655883,4.773908799153468,-8.42667417557715,-1.931431637222383,0.16587262343128215,-4.893750974513759,24.751469918528986,34.03440439335133,-84.11906006495818,299.6036417739131,2.9697183811337595
0.027670940710617598,4.636335967811195,-8.844045886924363,-4.289182557161844,0.9224559474641664,-5.533695429150267,24.87772722200576,34.03440355273931,-84.11904663277217,300.46762470899574,2.412829485190206
0.36553709528960776,5.171006156501379,-8.308767597912361,-2.0388445524739165,-0.86819101565295,-6.187860212833428,24.853912138057986,34.03440267909684,-84.11903409934055,299.55749335329006,2.2529211439314536
-1.2784330347816537,2.8025487341190525,-10.268457082588942,-4.607006231116218,9.342314152321835,9.72990686230522,25.042795626092065,34.034400239147544,-84.11901799286672,300.0673949347602,2.9328057300949935
-1.4458401258703175,2.6618780167584717,-10.141608985425545,-4.571981632758488,8.901213897371964,9.970102781956456,24.922704542100583,34.03439618771253,-84.119002300493,299.58951538409866,2.944076471385007
-1.7013749522881165,2.43103783211588,-10.13083841959665,-7.153933299509154,9.564775234017004,8.877543528787102,24.867521730531738,34.03439286890467,-84.1189898352511,300.0426508724833,2.3451844073006742
-1.8048174609579282,2.2327819328259384,-10.067887032067452,-4.732042510601181,7.801838883288001,6.4978933474338145,25.05669136970705,34.03438804162019,-84.11897579743518,300.59763721834855,2.7223492545971735
-1.6539192945802004,2.5010827996806673,-10.256529130343555,-6.16358494067172,9.785874556937616,9.296803753279136,24.92889107662435,34.034383867224236,-84.11896400681694,300.29254774735267,2.2966061518778074
-1.6275830574513044,2.6680200743785627,-9.96807431190917,-5.617861143865307,9.06361916703792,7.089724648498678,24.755073196135484,34.03438026013667,-84.11895065252138,300.0688773535742,2.5158815933773466
-1.860458366249892,3.050904321186643,-10.051020495643867,-5.396805379768372,8.338069780341675,10.002615678109136,24.907517140120525,34.03437725420097,-84.11893793887221,300.3460144989544,2.368146230881483
-1.5039369754421177,3.0423172190493566,-9.90993996565433,-5.325181105801683,8.46394006526218,10.458974500259897,24.853778751706525,34.03437263645368,-84.11892087667381,300.597280404318,3.2150439833450077
-1.809786012749828,2.067616628356906,-10.289064975348271,-5.406080840097099,8.049905155593962,9.418919541281916,24.82694757244276,34.03436867764363,-84.11890652323967,301.65470598921667,2.7096491522518167
-1.8993704872361223,2.494413787134739,-10.0100846132762,-5.6015832164543085,8.771084036044664,10.418534532622115,24.937837839001855,34.03436489937914,-84.11889372828117,300.45791493902095,2.4329927778691056
-1.8894127352349805,2.6076175759938462,-10.218928210458193,-4.0753829366666805,8.270106614744124,9.111502240177394,24.869795625754413,34.03436021005594,-84.1188801846162,300.3097349888392,2.62917533364607
-1.745731893970059,2.403095717293868,-9.891258564248734,-5.503202368194149,9.408011827810288,7.498811224975952,24.79315159682109,34.03435458844613,-84.11886607843464,299.71197963910754,2.8036908567253005
-1.097734658765165,2.6273922408438555,-10.334898504443638,-5.131167759814154,8.422907347628744,8.23563707418328,24.862994720632848,34.03435022403929,-84.11885407434825,299.39447761106186,2.348014473453401
-1.589095439177209,2.2286371866650647,-10.115308820258612,-4.393725587841409,8.520668479848583,7.978480750640037,24.917649546466688,34.0343455355933,-84.1188442816012,299.90331754132626,2.0257736459557165
-1.2632796939798825,2.6062076963241276,-10.542930657858808,-4.881300156190097,8.549148546018039,6.435956298930246,24.85803131555585,34.034340528323554,-84.11883143913944,299.65016500947047,2.542238755327474
0.6015701216615364,4.531612122487762,-8.803026306460474,-5.56641771887568,-1.6041043094139011,0.5382480995017157,24.668928787676364,34.03433685393953,-84.11881922356211,299.29922199765105,2.327738874505591
0.28570443539387735,4.288255059753343,-9.058904229989187,-6.293396508612636,0.329788599115187,-0.33994813240992555,24.819196386472736,34.03433231947564,-84.11880342183733,300.28838919723967,2.995304331394075
0.7355643192411495,4.265745760918762,-8.688204359571117,-8.044035612714655,-0.6748239509272166,-1.8075080413658253,24.864822818393126,34.03432751957066,-84.11878529603389,299.9623443440842,3.408438173285241
0.19921741778512392,3.783469211172679,-8.655397052555593,-6.006846355641224,1.6411649652050835,0.2697744403254684,24.774310283804475,34.034324435862025,-84.11877255411085,300.46104372330177,2.3776756419259013
0.33246708174956874,4.2609006048832105,-9.08209070177776,-7.747921260811948,0.9302867464218793,0.39212361874469404,24.636555762125326,34.03432193752864,-84.11875947239758,299.5370676341432,2.4046225756683595
0.01502707095572986,4.208617611093178,-8.979094768079278,-5.877156078442751,-0.7457603539633826,0.14281562268712655,24.86126170625168,34.034320394156076,-84.11874491100929,299.50454433050925,2.6294910429647906
0.14051616253606075,4.115660190333017,-8.451836727693902,-5.258590380370004,0.8965301996382612,-1.9742141997075264,24.746934314129504,34.03431880111178,-84.11873315389798,299.3813843603954,2.1339046542288793
0.4953018662509925,4.0907565489222995,-8.990784438338926,-8.434065160357566,0.857455119360757,1.3645663584687182,24.87724737979188,34.03431715744468,-84.11872196681841,299.8788041624839,2.0350866871001827
0.33135836175688416,4.455898309405233,-9.095348545042082,-6.8785921437531545,1.8316590796269592,1.105359065253324,24.82382467643015,34.0343158112064,-84.11870884792258,300.51073384468583,2.3678121029407047
0.5941979178402832,4.623169854332653,-9.099816399334825,-7.407469822013855,-1.203377244255014,0.30915825569378164,24.917855864316646,34.034314295335015,-84.11869631184332,300.34702765469285,2.26924864085881
0.5198680096918376,4.323194830814648,-8.706129869784782,-6.519473519278589,0.8697433569221411,-1.0884543523573487,24.727683859592382,34.03431260547869,-84.11868255508465,300.98416984643177,2.4910425736279556
0.3225799183760752,4.218451659551772,-8.981161303290222,-6.52017866595207,-0.15836894381262379,0.32038758494204767,24.71480537195375,34.0343097021611,-84.11866862224528,300.45217899280937,2.57334764049525
0.2978889942728661,4.760145209510047,-8.845687140516779,-7.095460934252046,0.3874237479101837,-2.569133236391535,24.81284008432919,34.03430698651389,-84.11865570056166,300.3277206335365,2.3878097000186216
0.4746843156180556,4.27443427410073,-8.837109507309183,-6.994973094112184,-1.2108636785406666,0.13981601341939398,24.8853301518149,34.03430319833687,-84.11864149302595,300.86254912907066,2.6733418064571155
0.4998737981974043,4.244436367618014,-8.928503258308089,-6.341103578313026,-0.38816027509691536,-0.8787252329236607,24.654304002752337,34.034297058867814,-84.11862394697829,299.56773388337757,3.4115313503996196
0.6495958386037737,4.407931118002408,-8.507587666072203,0.5142171366662504,-6.253350236817571,-7.121096594933936,24.847924394015,34.03429401370735,-84.1186124849896,299.8438003695084,2.156005017111029
0.641838510080063,3.950228473234925,-8.781991424952812,1.0766706129679404,-6.051833046406956,-5.738655903894635,24.935600761658705,34.034288402635106,-84.11859554468602,300.3806286949514,3.267757089309415
1.0585467086778555,4.352711857265843,-8.761096017923293,2.7019025778113988,-6.783485366432564,-5.9406211077566775,25.01707208193718,34.034284680342566,-84.1185843195421,299.60761172668697,2.1656517542348537
0.5462880207426827,4.417096253680733,-8.639563437550008,0.22569286765939145,-6.045130788967714,-5.323596190410233,25.093327081477668,34.03428097029658,-84.1185709810486,300.086342133211,2.520185840667313
0.7126293037903855,4.548011068138371,-8.753918726866365,1.4581121750118773,-8.71138629711581,-4.673512830738749,24.779589305453815,34.034278403200666,-84.11856090968054,300.64805255214713,1.8873945033162958
0.650012597021363,4.490909194175826,-8.799809827003806,1.0284033815719509,-5.266965105393596,-7.207202662273087,25.01490899799549,34.03427589163836,-84.11854925815221,299.0766730961717,2.1564771149985216
0.8357282979740419,4.594468610604478,-8.590509605532473,2.7382178205401595,-5.815678274395296,-5.058955985062129,24.976768636360276,34.034272766182845,-84.11853732616815,299.7477414313778,2.2414895650144966
0.8556631126091512,4.47346655187131,-8.521690500929779,1.9332131896241003,-4.727119369868731,-6.616108957562288,24.858493182078952,34.034270969649675,-84.11852438823902,300.1703868534328,2.3497584909011224
0.48959537472267756,4.372519751933808,-8.691732765403216,2.2047676904076274,-5.984339557826415,-5.924141782133021,24.70342003847177,34.03426834491736,-84.11851139718692,299.70311091183237,2.3951261525037726
0.5635353521763259,4.334284590796423,-8.967551915750015,-0.6274761627251413,-7.295604353271111,-6.488688540572074,24.967853466345655,34.034265907896526,-84.11849705549714,299.88289612113715,2.6223426540510184
0.3969390167856815,4.5708885669474615,-8.853497254113579,1.7044995924149444,-6.570404686947114,-8.686963436253853,24.827490139056593,34.03426460562668,-84.11848747717272,299.7836421352678,1.7386131870620614
0.7564103087555716,4.261191726077208,-8.936425889130845,1.5347980330339404,-6.667395647559605,-6.844339081580302,24.861432186589127,34.03426335704907,-84.11847431343803,300.4802680643629,2.373291507506534
0.340474293392942,4.826000745219587,-8.726427579324833,2.2056226381441997,-6.06191880213929,-5.113423681254127,24.830186332660293,34.03426193265125,-84.11846195876939,300.6392939204889,2.2342908585789214
0.6677859651557659,4.644799707420355,-8.584145134678035,1.6567230305125569,-6.181422571152838,-5.102794112493627,24.83086013456583,34.03426026666514,-84.11844453802216,300.22494150868874,3.1411253839410014
0.5666841696431064,4.5126914328890555,-8.617806518369333,2.181114185120455,-7.565400525746382,-6.855568491517298,24.986297386308372,34.03425948799063,-84.11843333834311,300.15378244514983,2.013142412998259
-0.4310485400210209,4.444701302471589,-8.234940546746564,10.219064699609477,-8.91665708922879,-8.221798885722563,25.013205486482278,34.03425762974368,-84.11841909196791,300.0882120706167,2.5832371944847194
-0.3757511892279445,3.8242487697946475,-8.33011288772144,9.470804623866604,-10.168894282290946,-8.35328393967322,24.778501689123573,34.034256861126266,-84.11840879112529,299.08777506388526,1.8525585936619335
-0.06786392182783152,4.108581255772682,-8.318844024056512,7.838792779839287,-9.73070231364958,-8.009716352637101,24.880382987453036,34.03425422795734,-84.11839429029754,299.6282832077268,2.6590242429426434
-0.13514404573346378,4.253784222897397,-8.293116373286589,8.145417570864842,-9.522928317802537,-9.302483062039247,24.826440296302245,34.03425184929483,-84.11837937920866,299.97854714390473,2.719919986655512
-0.7281772255507333,4.107954201389509,-8.090183243708037,8.55575484725922,-8.64850597152379,-6.119446669586148,24.950921745207825,34.0342501522253,-84.11836687552073,298.27567727215825,2.2695094676703316
-0.38170241901492735,4.261413865933429,-8.261436759890008,9.674019162757983,-8.684021444148849,-8.308402903528101,24.86385118084564,34.03424714987642,-84.11835175819077,300.6715352056818,2.7845032063792536
-0.5827858949087044,4.1164839433339875,-8.264080592644214,9.012194622067108,-8.983596664234677,-7.057413010951145,25.015685044669983,34.034245060725524,-84.1183417163504,299.56998991791784,1.8545177200966536
-0.5573905168203893,3.9716185754989164,-8.165910292022977,9.742638497972301,-10.584828704024181,-6.977830592818784,24.80778249032608,34.03424171640861,-84.11832668700148,300.08861193337685,2.787428515860103
-0.5363305398821144,4.098492390428225,-8.136412024847697,9.522376292775816,-8.642006400301428,-6.321487179230741,24.952103396560226,34.034238430735066,-84.1183139344941,299.53153123580427,2.392092938524441
-0.5170519249537736,3.7098793817037237,-8.135031176763228,7.052051727851639,-8.534113756617073,-6.458597191245565,24.949662619796896,34.03423444134081,-84.11829843236701,300.34909647190716,2.907559365898825
-0.4244818675814694,4.087713464970473,-8.430095037304351,7.449662730065323,-7.475738163575896,-7.957391862325655,24.94662225722331,34.03422838283697,-84.11828453860423,299.5157170421425,2.8121662927028575
-0.6733701653276094,4.0312451799082165,-8.45359696082299,9.422515160685503,-9.14768953522503,-7.181247894633608,24.843312504515804,34.03422478077047,-84.11827436833252,300.1052399969063,1.9811083195929997
-0.5115401134601578,4.14173597805347,-8.440965294695047,10.07918543257582,-8.129101072894434,-7.581655935263993,24.83619241606781,34.03421921460722,-84.11826096114953,300.3760874134914,2.686016347355406
-0.3249566013634328,4.195892538153236,-8.246461578939542,10.274749403275852,-7.24600934001213,-5.931382224386823,24.69643879149754,34.03421201711522,-84.11824328789275,300.5556024283975,3.527258623987735
-0.7027899064525578,3.7016369117483627,-8.339268978531344,8.199793471958701,-8.611511634963803,-9.42520659988896,25.13221618352626,34.0342065153684,-84.11822794718205,300.49098354368164,2.9941235869106966
-1.2090191380272415,4.081403499973278,-9.195966819918741,-5.616097781722761,-5.232885285222442,3.434747525191635,24.94309993261241,34.034201148304135,-84.11821209670592,300.3464882656792,3.0670073104962046
-0.9479588026675384,4.068841572174067,-9.44252372683045,-5.746179451910834,-5.705946565937899,3.9664050332234537,24.86614243440881,34.03419642777807,-84.11819796287146,299.8044988219552,2.729538586150804
-1.460809890680622,4.271189218454235,-9.584418688600065,-6.405606447027018,-5.551048140223436,3.834514509115849,24.95004775394301,34.03419318520557,-84.11818735238647,300.9689454169608,2.0256706034704615
-1.3665303158547364,3.8159468155410763,-9.38729562135576,-7.645641902643083,-6.242411060291373,4.826449952156524,25.041895058005025,34.034189541376016,-84.11817721340793,300.4969665198212,1.9795301816002393
-1.2965201135016442,3.9782332280527575,-9.461638696244062,-5.962666985204667,-6.587191955241284,6.0360914482789205,25.02977051399683,34.03418519337481,-84.11816562674242,300.32960144767355,2.2782821646503955
-1.185804937099825,3.566016240436349,-9.122119143054919,-5.808029987963974,-5.542812628963612,6.2634266456713945,24.969601933228404,34.03418065081952,-84.11815343881429,299.41672072767716,2.393745456272473
-1.6095391403977384,3.89657582979101,-9.3645616607528,-4.431220711990539,-5.697989760142975,5.519385053681135,24.913991627376074,34.034175199347516,-84.11814240449354,299.8504896134991,2.3010614250367465
-1.4675304138628693,4.19679097256092,-9.285259510066684,-5.657656418726624,-6.204276694495203,5.804794820190848,24.973613843194787,34.03416951164096,-84.1181303727565,300.10713048788665,2.4811226160398547
-1.398239740568831,3.961072768697442,-9.396835314299617,-7.66299130766401,-5.220434085471659,5.136820074345552,24.915093673095985,34.03416422487521,-84.11811807454578,300.06655310836726,2.481614974393938
-1.3688040055927995,3.6995358216592282,-9.12012065841445,-5.761622818867031,-5.583938711244369,4.355088317463797,24.916439292002778,34.0341593096193,-84.11810686346465,299.18790531385855,2.27185872621485
-1.1033695433484103,4.061527123965761,-9.580930465662608,-4.663938932323829,-5.638800486010878,5.950421543772244,24.956224035351962,34.0341528063112,-84.11809413372445,300.2778907370021,2.6786248036930447
-1.5833964730585224,3.959489504824588,-9.280298090881745,-3.9657283359862685,-8.167728909150895,4.955323051182093,24.845973351489945,34.034146277814635,-84.11808123354098,300.0862622850316,2.7074943885454394
-1.476068156293719,3.5374023844096927,-8.881104322201447,-7.889681153341319,-5.735015793303709,4.534047062454532,24.85044406777098,34.034138066768904,-84.11806874528583,299.9651207849016,2.8554533597354874
-1.129269452454791,3.715917717735171,-9.23192712769045,-4.486917768224194,-4.000277353047332,3.8341295415345216,24.864879193016524,34.034130395506736,-84.11805783229659,300.27226703507966,2.5632717518102535
-1.4074082927805316,3.6400464590794823,-9.215428458410624,-4.373997687852379,-7.33743775624564,3.385444897885337,24.756856064007582,34.03412361128579,-84.11804876926472,300.43148563954196,2.1876090852150423
-1.0302016870698099,3.499362134724829,-8.83770365214332,-15.468027274107612,1.521282202754975,17.19489946507712,24.849052822730847,34.034114887648435,-84.1180347125575,299.71821676323816,3.145628677963652
-0.8469052881305112,3.839424033450327,-8.901527484630133,-14.315810129903465,0.6786483832071422,18.32451733947558,24.868751588556,34.03410757683017,-84.11802104469535,300.6674814415449,2.913885930170263
-1.3516050553706231,4.095997904722305,-8.224015813537608,-16.90393991769487,-0.04355904497424079,19.7906491354401,24.754097251934176,34.034102783366485,-84.11800986783183,299.67635017476334,2.254224061075563
-1.1832655849483813,4.303238041225872,-8.585181375085968,-15.156739049647838,-1.2705107190560923,19.322349051392205,24.846142866065687,34.03409697372785,-84.1179990360845,298.96530775275033,2.311105383581654
-1.3306279177139724,3.6017469290809423,-9.003018074536287,-14.109954328836732,0.09041948366296675,17.978657950065976,24.916068747008044,34.03409100435974,-84.11799069822794,299.12201564544216,1.973640020547926
-1.367224484513424,3.9587910125160066,-9.124539799389208,-15.078388294077046,-0.4964166492426961,18.368679056982277,24.767213052691385,34.03408120360699,-84.11797736754536,299.6485552689354,3.19205295929136
-0.7296459109598468,3.5630274185443045,-8.869956194268646,-14.166217364444687,0.38273564000678106,19.743506661908178,24.740537609076835,34.03407399830199,-84.11796864508248,300.06769408526065,2.20601594980474
-0.9435518307405093,3.7649061945335793,-8.737415327225852,-14.295580872371994,0.33447626713104645,18.78661535244153,24.804590702181198,34.03406559966828,-84.11795686844796,300.39902768894655,2.7830154321307807
-1.021797745360299,3.4100763439266326,-8.96743922128693,-13.729688654567997,-1.9295790452620536,16.290040997305272,25.000753238902448,34.03406037374741,-84.11794990490647,299.5539656090099,1.6827681667723142
